*Username	*ExperimentName	*Session	*Trial	*Date	*TimeDif	*Condition Number	*Stimuli File	*Order File	*Condition Description	*Condition Notes	Stimuli*Target	Stimuli*Cue	Stimuli*Answer	Stimuli*Shuffle	Stimuli*Stimuli Notes	Procedure*Item	Procedure*Trial Type	Procedure*Post Trial	Procedure*Timing	Procedure*Procedure Notes	Procedure*Shuffle	Response*Response1	Response*RT	Response*RTkey	Response*RTlast	Response*strictAcc	Response*lenientAcc	Response*Accuracy	Response*JOL	Response*postRT	Response*postRTkey
A3J01A18AJBGKX	Collector	1	1	2016-03-06T16:26:37-08:00	-	1	Stimuli/versionCstim.txt	Procedure/versionCproc.txt	Tetris		n/a	n/a	n/a	n/a	n/a	0	Instruct	N/A	User	Click the button below for the first list.	Off		1860								
A3J01A18AJBGKX	Collector	1	2	2016-03-06T16:26:42-08:00	5	1	Stimuli/versionCstim.txt	Procedure/versionCproc.txt	Tetris		ROSEMARY		ROSEMARY	OFF	Cat_Recall_L1	13	Study	No	3	Cat_Recall_L1	ON		3000								
A3J01A18AJBGKX	Collector	1	3	2016-03-06T16:26:46-08:00	4	1	Stimuli/versionCstim.txt	Procedure/versionCproc.txt	Tetris		HORSERADISH		HORSERADISH	OFF	Cat_Recall_L1	18	Study	No	3	Cat_Recall_L1	ON		3000								
A3J01A18AJBGKX	Collector	1	4	2016-03-06T16:26:51-08:00	5	1	Stimuli/versionCstim.txt	Procedure/versionCproc.txt	Tetris		SUGAR		SUGAR	OFF	Cat_Recall_L1	2	Study	No	3	Cat_Recall_L1	ON		3000								
A3J01A18AJBGKX	Collector	1	5	2016-03-06T16:26:55-08:00	4	1	Stimuli/versionCstim.txt	Procedure/versionCproc.txt	Tetris		VANILLA		VANILLA	OFF	Cat_Recall_L1	3	Study	No	3	Cat_Recall_L1	ON		3000								
A3J01A18AJBGKX	Collector	1	6	2016-03-06T16:27:00-08:00	5	1	Stimuli/versionCstim.txt	Procedure/versionCproc.txt	Tetris		ALMOND		ALMOND	OFF	Cat_Recall_L1	10	Study	No	3	Cat_Recall_L1	ON		3000								
A3J01A18AJBGKX	Collector	1	7	2016-03-06T16:27:05-08:00	5	1	Stimuli/versionCstim.txt	Procedure/versionCproc.txt	Tetris		CHILI POWDER		CHILI POWDER	OFF	Cat_Recall_L1	17	Study	No	3	Cat_Recall_L1	ON		3000								
A3J01A18AJBGKX	Collector	1	8	2016-03-06T16:27:11-08:00	6	1	Stimuli/versionCstim.txt	Procedure/versionCproc.txt	Tetris		ONION SALT		ONION SALT	OFF	Cat_Recall_L1	7	Study	No	3	Cat_Recall_L1	ON		3000								
A3J01A18AJBGKX	Collector	1	9	2016-03-06T16:27:15-08:00	4	1	Stimuli/versionCstim.txt	Procedure/versionCproc.txt	Tetris		TURMERIC		TURMERIC	OFF	Cat_Recall_L1	21	Study	No	3	Cat_Recall_L1	ON		3000								
A3J01A18AJBGKX	Collector	1	10	2016-03-06T16:27:20-08:00	5	1	Stimuli/versionCstim.txt	Procedure/versionCproc.txt	Tetris		BAY LEAVES		BAY LEAVES	OFF	Cat_Recall_L1	9	Study	No	3	Cat_Recall_L1	ON		3000								
A3J01A18AJBGKX	Collector	1	11	2016-03-06T16:27:26-08:00	6	1	Stimuli/versionCstim.txt	Procedure/versionCproc.txt	Tetris		OREGANO		OREGANO	OFF	Cat_Recall_L1	5	Study	No	3	Cat_Recall_L1	ON		3000								
A3J01A18AJBGKX	Collector	1	12	2016-03-06T16:27:30-08:00	4	1	Stimuli/versionCstim.txt	Procedure/versionCproc.txt	Tetris		GINGER		GINGER	OFF	Cat_Recall_L1	15	Study	No	3	Cat_Recall_L1	ON		3000								
A3J01A18AJBGKX	Collector	1	13	2016-03-06T16:27:35-08:00	5	1	Stimuli/versionCstim.txt	Procedure/versionCproc.txt	Tetris		BASIL		BASIL	OFF	Cat_Recall_L1	20	Study	No	3	Cat_Recall_L1	ON		3000								
A3J01A18AJBGKX	Collector	1	14	2016-03-06T16:27:40-08:00	5	1	Stimuli/versionCstim.txt	Procedure/versionCproc.txt	Tetris		CHIVES		CHIVES	OFF	Cat_Recall_L1	14	Study	No	3	Cat_Recall_L1	ON		3000								
A3J01A18AJBGKX	Collector	1	15	2016-03-06T16:27:45-08:00	5	1	Stimuli/versionCstim.txt	Procedure/versionCproc.txt	Tetris		CLOVES		CLOVES	OFF	Cat_Recall_L1	4	Study	No	3	Cat_Recall_L1	ON		3000								
A3J01A18AJBGKX	Collector	1	16	2016-03-06T16:27:53-08:00	8	1	Stimuli/versionCstim.txt	Procedure/versionCproc.txt	Tetris		THYME		THYME	OFF	Cat_Recall_L1	8	Study	No	3	Cat_Recall_L1	ON		3000								
A3J01A18AJBGKX	Collector	1	17	2016-03-06T16:27:58-08:00	5	1	Stimuli/versionCstim.txt	Procedure/versionCproc.txt	Tetris		CELERY SEED		CELERY SEED	OFF	Cat_Recall_L1	19	Study	No	3	Cat_Recall_L1	ON		3000								
A3J01A18AJBGKX	Collector	1	18	2016-03-06T16:28:04-08:00	6	1	Stimuli/versionCstim.txt	Procedure/versionCproc.txt	Tetris		CURRY		CURRY	OFF	Cat_Recall_L1	11	Study	No	3	Cat_Recall_L1	ON		3000								
A3J01A18AJBGKX	Collector	1	19	2016-03-06T16:28:09-08:00	5	1	Stimuli/versionCstim.txt	Procedure/versionCproc.txt	Tetris		CUMIN		CUMIN	OFF	Cat_Recall_L1	16	Study	No	3	Cat_Recall_L1	ON		3000								
A3J01A18AJBGKX	Collector	1	20	2016-03-06T16:28:14-08:00	5	1	Stimuli/versionCstim.txt	Procedure/versionCproc.txt	Tetris		SAGE		SAGE	OFF	Cat_Recall_L1	12	Study	No	3	Cat_Recall_L1	ON		3000								
A3J01A18AJBGKX	Collector	1	21	2016-03-06T16:28:18-08:00	4	1	Stimuli/versionCstim.txt	Procedure/versionCproc.txt	Tetris		NUTMEG		NUTMEG	OFF	Cat_Recall_L1	6	Study	No	3	Cat_Recall_L1	ON		3000								
A3J01A18AJBGKX	Collector	1	22	2016-03-06T16:28:24-08:00	6	1	Stimuli/versionCstim.txt	Procedure/versionCproc.txt	Tetris		n/a	n/a	n/a	n/a	n/a	0	Instruct	N/A	User	Recall Instructions: Recall the words that you saw from memory by typing them into the dialog box on the next screen. You will have 1 minute. Click the button below to begin.	OFF		3030								
A3J01A18AJBGKX	Collector	1	23	2016-03-06T16:29:28-08:00	64	1	Stimuli/versionCstim.txt	Procedure/versionCproc.txt	Tetris		n/a	n/a	n/a	n/a	n/a	0	freerecall	N/A	60	Recall now in the box. Spelling will not be counted against you. The computer will advance when your minute is up.	OFF	Sugar <br />  <br /> Vanilla <br />  <br /> Almond <br />  <br /> Cumin <br />  <br /> Cloves <br />  <br /> Onion Salt <br />  <br /> Bay Leaf <br />  <br /> Curry Powder <br />  <br /> Oregano <br />  <br /> 	60000	2700	54160						
A3J01A18AJBGKX	Collector	1	24	2016-03-06T16:29:33-08:00	5	1	Stimuli/versionCstim.txt	Procedure/versionCproc.txt	Tetris		n/a	n/a	n/a	n/a	n/a	0	Instruct	N/A	User	Click the button below for the next list.	OFF		3630								
A3J01A18AJBGKX	Collector	1	25	2016-03-06T16:29:37-08:00	4	1	Stimuli/versionCstim.txt	Procedure/versionCproc.txt	Tetris		SPIRAL		SPIRAL	OFF	AdHoc_Recall_L2	37	Study	No	3	AdHoc_Recall_L2	ON		3000								
A3J01A18AJBGKX	Collector	1	26	2016-03-06T16:29:42-08:00	5	1	Stimuli/versionCstim.txt	Procedure/versionCproc.txt	Tetris		SATELLITE		SATELLITE	OFF	AdHoc_Recall_L2	23	Study	No	3	AdHoc_Recall_L2	ON		3000								
A3J01A18AJBGKX	Collector	1	27	2016-03-06T16:29:47-08:00	5	1	Stimuli/versionCstim.txt	Procedure/versionCproc.txt	Tetris		TOP		TOP	OFF	AdHoc_Recall_L2	26	Study	No	3	AdHoc_Recall_L2	ON		3000								
A3J01A18AJBGKX	Collector	1	28	2016-03-06T16:29:52-08:00	5	1	Stimuli/versionCstim.txt	Procedure/versionCproc.txt	Tetris		ORB		ORB	OFF	AdHoc_Recall_L2	28	Study	No	3	AdHoc_Recall_L2	ON		3000								
A3J01A18AJBGKX	Collector	1	29	2016-03-06T16:29:57-08:00	5	1	Stimuli/versionCstim.txt	Procedure/versionCproc.txt	Tetris		DREIDEL		DREIDEL	OFF	AdHoc_Recall_L2	25	Study	No	3	AdHoc_Recall_L2	ON		3000								
A3J01A18AJBGKX	Collector	1	30	2016-03-06T16:30:01-08:00	4	1	Stimuli/versionCstim.txt	Procedure/versionCproc.txt	Tetris		WINDMILL		WINDMILL	OFF	AdHoc_Recall_L2	39	Study	No	3	AdHoc_Recall_L2	ON		3000								
A3J01A18AJBGKX	Collector	1	31	2016-03-06T16:30:07-08:00	6	1	Stimuli/versionCstim.txt	Procedure/versionCproc.txt	Tetris		ROULETTE		ROULETTE	OFF	AdHoc_Recall_L2	30	Study	No	3	AdHoc_Recall_L2	ON		3000								
A3J01A18AJBGKX	Collector	1	32	2016-03-06T16:30:14-08:00	7	1	Stimuli/versionCstim.txt	Procedure/versionCproc.txt	Tetris		PROPELLER		PROPELLER	OFF	AdHoc_Recall_L2	22	Study	No	3	AdHoc_Recall_L2	ON		3000								
A3J01A18AJBGKX	Collector	1	33	2016-03-06T16:30:19-08:00	5	1	Stimuli/versionCstim.txt	Procedure/versionCproc.txt	Tetris		BICYCLE		BICYCLE	OFF	AdHoc_Recall_L2	33	Study	No	3	AdHoc_Recall_L2	ON		3000								
A3J01A18AJBGKX	Collector	1	34	2016-03-06T16:30:23-08:00	4	1	Stimuli/versionCstim.txt	Procedure/versionCproc.txt	Tetris		SPOOL		SPOOL	OFF	AdHoc_Recall_L2	34	Study	No	3	AdHoc_Recall_L2	ON		3000								
A3J01A18AJBGKX	Collector	1	35	2016-03-06T16:30:29-08:00	6	1	Stimuli/versionCstim.txt	Procedure/versionCproc.txt	Tetris		GYROSCOPE		GYROSCOPE	OFF	AdHoc_Recall_L2	31	Study	No	3	AdHoc_Recall_L2	ON		3000								
A3J01A18AJBGKX	Collector	1	36	2016-03-06T16:30:34-08:00	5	1	Stimuli/versionCstim.txt	Procedure/versionCproc.txt	Tetris		TORNADO		TORNADO	OFF	AdHoc_Recall_L2	35	Study	No	3	AdHoc_Recall_L2	ON		3000								
A3J01A18AJBGKX	Collector	1	37	2016-03-06T16:30:39-08:00	5	1	Stimuli/versionCstim.txt	Procedure/versionCproc.txt	Tetris		PINWHEEL		PINWHEEL	OFF	AdHoc_Recall_L2	38	Study	No	3	AdHoc_Recall_L2	ON		3000								
A3J01A18AJBGKX	Collector	1	38	2016-03-06T16:30:44-08:00	5	1	Stimuli/versionCstim.txt	Procedure/versionCproc.txt	Tetris		SPHERE		SPHERE	OFF	AdHoc_Recall_L2	27	Study	No	3	AdHoc_Recall_L2	ON		3000								
A3J01A18AJBGKX	Collector	1	39	2016-03-06T16:30:49-08:00	5	1	Stimuli/versionCstim.txt	Procedure/versionCproc.txt	Tetris		GEAR		GEAR	OFF	AdHoc_Recall_L2	29	Study	No	3	AdHoc_Recall_L2	ON		3000								
A3J01A18AJBGKX	Collector	1	40	2016-03-06T16:30:54-08:00	5	1	Stimuli/versionCstim.txt	Procedure/versionCproc.txt	Tetris		HURRICANE		HURRICANE	OFF	AdHoc_Recall_L2	36	Study	No	3	AdHoc_Recall_L2	ON		3000								
A3J01A18AJBGKX	Collector	1	41	2016-03-06T16:30:59-08:00	5	1	Stimuli/versionCstim.txt	Procedure/versionCproc.txt	Tetris		ROTISSERIE		ROTISSERIE	OFF	AdHoc_Recall_L2	40	Study	No	3	AdHoc_Recall_L2	ON		3000								
A3J01A18AJBGKX	Collector	1	42	2016-03-06T16:31:04-08:00	5	1	Stimuli/versionCstim.txt	Procedure/versionCproc.txt	Tetris		RECORD		RECORD	OFF	AdHoc_Recall_L2	32	Study	No	3	AdHoc_Recall_L2	ON		3000								
A3J01A18AJBGKX	Collector	1	43	2016-03-06T16:31:09-08:00	5	1	Stimuli/versionCstim.txt	Procedure/versionCproc.txt	Tetris		YO-YO		YO-YO	OFF	AdHoc_Recall_L2	41	Study	No	3	AdHoc_Recall_L2	ON		3000								
A3J01A18AJBGKX	Collector	1	44	2016-03-06T16:31:14-08:00	5	1	Stimuli/versionCstim.txt	Procedure/versionCproc.txt	Tetris		BOTTLE		BOTTLE	OFF	AdHoc_Recall_L2	24	Study	No	3	AdHoc_Recall_L2	ON		3000								
A3J01A18AJBGKX	Collector	1	45	2016-03-06T16:31:19-08:00	5	1	Stimuli/versionCstim.txt	Procedure/versionCproc.txt	Tetris		n/a	n/a	n/a	n/a	n/a	0	Instruct	N/A	User	Recall Instructions: Recall the words that you saw from memory by typing them into the dialog box on the next screen. You will have 1 minute. Click the button below to begin.	OFF		3110								
A3J01A18AJBGKX	Collector	1	46	2016-03-06T16:32:23-08:00	64	1	Stimuli/versionCstim.txt	Procedure/versionCproc.txt	Tetris		n/a	n/a	n/a	n/a	n/a	0	freerecall	N/A	60	Recall now in the box. Spelling will not be counted against you. The computer will advance when your minute is up.	OFF	Yo-yo <br />  <br /> Bottle <br />  <br /> Spiral <br />  <br /> Satellite <br />  <br /> Top <br />  <br /> Sphere <br />  <br /> Orb <br />  <br /> Rotissiere <br />  <br /> Bicycle <br />  <br /> Windmill <br />  <br /> Dreidel <br />  <br /> 	60000	750	50240						
A3J01A18AJBGKX	Collector	1	47	2016-03-06T16:32:28-08:00	5	1	Stimuli/versionCstim.txt	Procedure/versionCproc.txt	Tetris		n/a	n/a	n/a	n/a	n/a	0	Instruct	N/A	User	Click the button below for the next list.	OFF		3070								
A3J01A18AJBGKX	Collector	1	48	2016-03-06T16:32:32-08:00	4	1	Stimuli/versionCstim.txt	Procedure/versionCproc.txt	Tetris		WAX		WAX	OFF	Unrel_Recall_L3	42	Study	No	3	Unrel_Recall_L3	ON		3000								
A3J01A18AJBGKX	Collector	1	49	2016-03-06T16:32:38-08:00	6	1	Stimuli/versionCstim.txt	Procedure/versionCproc.txt	Tetris		HERMIT		HERMIT	OFF	Unrel_Recall_L3	51	Study	No	3	Unrel_Recall_L3	ON		3000								
A3J01A18AJBGKX	Collector	1	50	2016-03-06T16:32:43-08:00	5	1	Stimuli/versionCstim.txt	Procedure/versionCproc.txt	Tetris		LANTERN		LANTERN	OFF	Unrel_Recall_L3	45	Study	No	3	Unrel_Recall_L3	ON		3000								
A3J01A18AJBGKX	Collector	1	51	2016-03-06T16:32:48-08:00	5	1	Stimuli/versionCstim.txt	Procedure/versionCproc.txt	Tetris		HELMET		HELMET	OFF	Unrel_Recall_L3	46	Study	No	3	Unrel_Recall_L3	ON		3000								
A3J01A18AJBGKX	Collector	1	52	2016-03-06T16:32:53-08:00	5	1	Stimuli/versionCstim.txt	Procedure/versionCproc.txt	Tetris		WHALE		WHALE	OFF	Unrel_Recall_L3	53	Study	No	3	Unrel_Recall_L3	ON		3000								
A3J01A18AJBGKX	Collector	1	53	2016-03-06T16:32:58-08:00	5	1	Stimuli/versionCstim.txt	Procedure/versionCproc.txt	Tetris		ORPHAN		ORPHAN	OFF	Unrel_Recall_L3	55	Study	No	3	Unrel_Recall_L3	ON		3000								
A3J01A18AJBGKX	Collector	1	54	2016-03-06T16:33:04-08:00	6	1	Stimuli/versionCstim.txt	Procedure/versionCproc.txt	Tetris		MANUAL		MANUAL	OFF	Unrel_Recall_L3	57	Study	No	3	Unrel_Recall_L3	ON		3000								
A3J01A18AJBGKX	Collector	1	55	2016-03-06T16:33:09-08:00	5	1	Stimuli/versionCstim.txt	Procedure/versionCproc.txt	Tetris		HARVEST		HARVEST	OFF	Unrel_Recall_L3	59	Study	No	3	Unrel_Recall_L3	ON		3000								
A3J01A18AJBGKX	Collector	1	56	2016-03-06T16:33:15-08:00	6	1	Stimuli/versionCstim.txt	Procedure/versionCproc.txt	Tetris		CANTEEN		CANTEEN	OFF	Unrel_Recall_L3	61	Study	No	3	Unrel_Recall_L3	ON		3000								
A3J01A18AJBGKX	Collector	1	57	2016-03-06T16:33:19-08:00	4	1	Stimuli/versionCstim.txt	Procedure/versionCproc.txt	Tetris		CANDY		CANDY	OFF	Unrel_Recall_L3	48	Study	No	3	Unrel_Recall_L3	ON		3000								
A3J01A18AJBGKX	Collector	1	58	2016-03-06T16:33:24-08:00	5	1	Stimuli/versionCstim.txt	Procedure/versionCproc.txt	Tetris		DEBT		DEBT	OFF	Unrel_Recall_L3	43	Study	No	3	Unrel_Recall_L3	ON		3000								
A3J01A18AJBGKX	Collector	1	59	2016-03-06T16:33:29-08:00	5	1	Stimuli/versionCstim.txt	Procedure/versionCproc.txt	Tetris		EPISODE		EPISODE	OFF	Unrel_Recall_L3	49	Study	No	3	Unrel_Recall_L3	ON		3000								
A3J01A18AJBGKX	Collector	1	60	2016-03-06T16:33:34-08:00	5	1	Stimuli/versionCstim.txt	Procedure/versionCproc.txt	Tetris		DESERT		DESERT	OFF	Unrel_Recall_L3	47	Study	No	3	Unrel_Recall_L3	ON		3000								
A3J01A18AJBGKX	Collector	1	61	2016-03-06T16:33:39-08:00	5	1	Stimuli/versionCstim.txt	Procedure/versionCproc.txt	Tetris		INDEX		INDEX	OFF	Unrel_Recall_L3	60	Study	No	3	Unrel_Recall_L3	ON		3000								
A3J01A18AJBGKX	Collector	1	62	2016-03-06T16:33:44-08:00	5	1	Stimuli/versionCstim.txt	Procedure/versionCproc.txt	Tetris		ACRE		ACRE	OFF	Unrel_Recall_L3	52	Study	No	3	Unrel_Recall_L3	ON		3000								
A3J01A18AJBGKX	Collector	1	63	2016-03-06T16:33:49-08:00	5	1	Stimuli/versionCstim.txt	Procedure/versionCproc.txt	Tetris		BISHOP		BISHOP	OFF	Unrel_Recall_L3	50	Study	No	3	Unrel_Recall_L3	ON		3000								
A3J01A18AJBGKX	Collector	1	64	2016-03-06T16:33:53-08:00	4	1	Stimuli/versionCstim.txt	Procedure/versionCproc.txt	Tetris		KEG		KEG	OFF	Unrel_Recall_L3	58	Study	No	3	Unrel_Recall_L3	ON		3000								
A3J01A18AJBGKX	Collector	1	65	2016-03-06T16:33:58-08:00	5	1	Stimuli/versionCstim.txt	Procedure/versionCproc.txt	Tetris		EMPRESS		EMPRESS	OFF	Unrel_Recall_L3	44	Study	No	3	Unrel_Recall_L3	ON		3000								
A3J01A18AJBGKX	Collector	1	66	2016-03-06T16:34:03-08:00	5	1	Stimuli/versionCstim.txt	Procedure/versionCproc.txt	Tetris		METEOR		METEOR	OFF	Unrel_Recall_L3	56	Study	No	3	Unrel_Recall_L3	ON		3000								
A3J01A18AJBGKX	Collector	1	67	2016-03-06T16:34:08-08:00	5	1	Stimuli/versionCstim.txt	Procedure/versionCproc.txt	Tetris		JAM		JAM	OFF	Unrel_Recall_L3	54	Study	No	3	Unrel_Recall_L3	ON		3000								
A3J01A18AJBGKX	Collector	1	68	2016-03-06T16:34:12-08:00	4	1	Stimuli/versionCstim.txt	Procedure/versionCproc.txt	Tetris		n/a	n/a	n/a	n/a	n/a	0	Instruct	N/A	User	Recall Instructions: Recall the words that you saw from memory by typing them into the dialog box on the next screen. You will have 1 minute. Click the button below to begin.	OFF		2600								
A3J01A18AJBGKX	Collector	1	69	2016-03-06T16:35:17-08:00	65	1	Stimuli/versionCstim.txt	Procedure/versionCproc.txt	Tetris		n/a	n/a	n/a	n/a	n/a	0	freerecall	N/A	60	Recall now in the box. Spelling will not be counted against you. The computer will advance when your minute is up.	OFF	Wax <br />  <br /> Lantern  <br />  <br /> Whale <br />  <br /> Orphan <br />  <br /> 	60000	1700	27690						
A3J01A18AJBGKX	Collector	1	70	2016-03-06T16:35:22-08:00	5	1	Stimuli/versionCstim.txt	Procedure/versionCproc.txt	Tetris		n/a	n/a	n/a	n/a	n/a	0	Instruct	N/A	User	Click the button below for the next list.	OFF		3920								
A3J01A18AJBGKX	Collector	1	71	2016-03-06T16:35:27-08:00	5	1	Stimuli/versionCstim.txt	Procedure/versionCproc.txt	Tetris		CANON		CANON	OFF	Unrel_Recall_L4	68	Study	No	3	Unrel_Recall_L4	ON		3000								
A3J01A18AJBGKX	Collector	1	72	2016-03-06T16:35:32-08:00	5	1	Stimuli/versionCstim.txt	Procedure/versionCproc.txt	Tetris		MATH		MATH	OFF	Unrel_Recall_L4	76	Study	No	3	Unrel_Recall_L4	ON		3000								
A3J01A18AJBGKX	Collector	1	73	2016-03-06T16:35:38-08:00	6	1	Stimuli/versionCstim.txt	Procedure/versionCproc.txt	Tetris		FUNK		FUNK	OFF	Unrel_Recall_L4	72	Study	No	3	Unrel_Recall_L4	ON		3000								
A3J01A18AJBGKX	Collector	1	74	2016-03-06T16:35:43-08:00	5	1	Stimuli/versionCstim.txt	Procedure/versionCproc.txt	Tetris		QUICHE		QUICHE	OFF	Unrel_Recall_L4	63	Study	No	3	Unrel_Recall_L4	ON		3000								
A3J01A18AJBGKX	Collector	1	75	2016-03-06T16:35:49-08:00	6	1	Stimuli/versionCstim.txt	Procedure/versionCproc.txt	Tetris		INFANT		INFANT	OFF	Unrel_Recall_L4	69	Study	No	3	Unrel_Recall_L4	ON		3000								
A3J01A18AJBGKX	Collector	1	76	2016-03-06T16:35:55-08:00	6	1	Stimuli/versionCstim.txt	Procedure/versionCproc.txt	Tetris		NUGGET		NUGGET	OFF	Unrel_Recall_L4	70	Study	No	3	Unrel_Recall_L4	ON		3000								
A3J01A18AJBGKX	Collector	1	77	2016-03-06T16:36:00-08:00	5	1	Stimuli/versionCstim.txt	Procedure/versionCproc.txt	Tetris		VAPOR		VAPOR	OFF	Unrel_Recall_L4	75	Study	No	3	Unrel_Recall_L4	ON		3000								
A3J01A18AJBGKX	Collector	1	78	2016-03-06T16:36:05-08:00	5	1	Stimuli/versionCstim.txt	Procedure/versionCproc.txt	Tetris		KEROSENE		KEROSENE	OFF	Unrel_Recall_L4	71	Study	No	3	Unrel_Recall_L4	ON		3000								
A3J01A18AJBGKX	Collector	1	79	2016-03-06T16:36:10-08:00	5	1	Stimuli/versionCstim.txt	Procedure/versionCproc.txt	Tetris		OUTLAW		OUTLAW	OFF	Unrel_Recall_L4	80	Study	No	3	Unrel_Recall_L4	ON		3000								
A3J01A18AJBGKX	Collector	1	80	2016-03-06T16:36:14-08:00	4	1	Stimuli/versionCstim.txt	Procedure/versionCproc.txt	Tetris		DENTIST		DENTIST	OFF	Unrel_Recall_L4	81	Study	No	3	Unrel_Recall_L4	ON		3000								
A3J01A18AJBGKX	Collector	1	81	2016-03-06T16:36:19-08:00	5	1	Stimuli/versionCstim.txt	Procedure/versionCproc.txt	Tetris		SOLAR		SOLAR	OFF	Unrel_Recall_L4	66	Study	No	3	Unrel_Recall_L4	ON		3000								
A3J01A18AJBGKX	Collector	1	82	2016-03-06T16:36:24-08:00	5	1	Stimuli/versionCstim.txt	Procedure/versionCproc.txt	Tetris		VALVE		VALVE	OFF	Unrel_Recall_L4	67	Study	No	3	Unrel_Recall_L4	ON		3000								
A3J01A18AJBGKX	Collector	1	83	2016-03-06T16:36:29-08:00	5	1	Stimuli/versionCstim.txt	Procedure/versionCproc.txt	Tetris		BLOSSOM		BLOSSOM	OFF	Unrel_Recall_L4	65	Study	No	3	Unrel_Recall_L4	ON		3000								
A3J01A18AJBGKX	Collector	1	84	2016-03-06T16:36:37-08:00	8	1	Stimuli/versionCstim.txt	Procedure/versionCproc.txt	Tetris		PINT		PINT	OFF	Unrel_Recall_L4	73	Study	No	3	Unrel_Recall_L4	ON		3000								
A3J01A18AJBGKX	Collector	1	85	2016-03-06T16:36:42-08:00	5	1	Stimuli/versionCstim.txt	Procedure/versionCproc.txt	Tetris		CREST		CREST	OFF	Unrel_Recall_L4	77	Study	No	3	Unrel_Recall_L4	ON		3000								
A3J01A18AJBGKX	Collector	1	86	2016-03-06T16:36:47-08:00	5	1	Stimuli/versionCstim.txt	Procedure/versionCproc.txt	Tetris		ACORN		ACORN	OFF	Unrel_Recall_L4	79	Study	No	3	Unrel_Recall_L4	ON		3000								
A3J01A18AJBGKX	Collector	1	87	2016-03-06T16:36:51-08:00	4	1	Stimuli/versionCstim.txt	Procedure/versionCproc.txt	Tetris		CANOE		CANOE	OFF	Unrel_Recall_L4	62	Study	No	3	Unrel_Recall_L4	ON		3000								
A3J01A18AJBGKX	Collector	1	88	2016-03-06T16:36:56-08:00	5	1	Stimuli/versionCstim.txt	Procedure/versionCproc.txt	Tetris		FARM		FARM	OFF	Unrel_Recall_L4	74	Study	No	3	Unrel_Recall_L4	ON		3000								
A3J01A18AJBGKX	Collector	1	89	2016-03-06T16:37:02-08:00	6	1	Stimuli/versionCstim.txt	Procedure/versionCproc.txt	Tetris		ANGEL		ANGEL	OFF	Unrel_Recall_L4	64	Study	No	3	Unrel_Recall_L4	ON		3000								
A3J01A18AJBGKX	Collector	1	90	2016-03-06T16:37:08-08:00	6	1	Stimuli/versionCstim.txt	Procedure/versionCproc.txt	Tetris		CANE		CANE	OFF	Unrel_Recall_L4	78	Study	No	3	Unrel_Recall_L4	ON		3000								
A3J01A18AJBGKX	Collector	1	91	2016-03-06T16:37:14-08:00	6	1	Stimuli/versionCstim.txt	Procedure/versionCproc.txt	Tetris		n/a	n/a	n/a	n/a	n/a	0	Instruct	N/A	User	Recall Instructions: Recall the words that you saw from memory by typing them into the dialog box on the next screen. You will have 1 minute. Click the button below to begin.	OFF		3750								
A3J01A18AJBGKX	Collector	1	92	2016-03-06T16:38:18-08:00	64	1	Stimuli/versionCstim.txt	Procedure/versionCproc.txt	Tetris		n/a	n/a	n/a	n/a	n/a	0	freerecall	N/A	60	Recall now in the box. Spelling will not be counted against you. The computer will advance when your minute is up.	OFF	Canon <br />  <br /> Math <br />  <br /> Funk <br />  <br /> Infant  <br />  <br /> Vapor <br />  <br /> Kerosene <br />  <br /> 	60000	2160	19760						
A3J01A18AJBGKX	Collector	1	93	2016-03-06T16:38:22-08:00	4	1	Stimuli/versionCstim.txt	Procedure/versionCproc.txt	Tetris		n/a	n/a	n/a	n/a	n/a	0	Instruct	N/A	User	Click the button below for the next list.	OFF		2710								
A3J01A18AJBGKX	Collector	1	94	2016-03-06T16:38:27-08:00	5	1	Stimuli/versionCstim.txt	Procedure/versionCproc.txt	Tetris		LINEN		LINEN	OFF	Cat_Recall_L5	83	Study	No	3	Cat_Recall_L5	ON		3000								
A3J01A18AJBGKX	Collector	1	95	2016-03-06T16:38:33-08:00	6	1	Stimuli/versionCstim.txt	Procedure/versionCproc.txt	Tetris		CHEESE CLOTH		CHEESE CLOTH	OFF	Cat_Recall_L5	90	Study	No	3	Cat_Recall_L5	ON		3000								
A3J01A18AJBGKX	Collector	1	96	2016-03-06T16:38:38-08:00	5	1	Stimuli/versionCstim.txt	Procedure/versionCproc.txt	Tetris		CORDUROY		CORDUROY	OFF	Cat_Recall_L5	88	Study	No	3	Cat_Recall_L5	ON		3000								
A3J01A18AJBGKX	Collector	1	97	2016-03-06T16:38:42-08:00	4	1	Stimuli/versionCstim.txt	Procedure/versionCproc.txt	Tetris		POLYESTER		POLYESTER	OFF	Cat_Recall_L5	93	Study	No	3	Cat_Recall_L5	ON		3000								
A3J01A18AJBGKX	Collector	1	98	2016-03-06T16:38:48-08:00	6	1	Stimuli/versionCstim.txt	Procedure/versionCproc.txt	Tetris		CHIFFON		CHIFFON	OFF	Cat_Recall_L5	100	Study	No	3	Cat_Recall_L5	ON		3000								
A3J01A18AJBGKX	Collector	1	99	2016-03-06T16:38:53-08:00	5	1	Stimuli/versionCstim.txt	Procedure/versionCproc.txt	Tetris		TWILL		TWILL	OFF	Cat_Recall_L5	82	Study	No	3	Cat_Recall_L5	ON		3000								
A3J01A18AJBGKX	Collector	1	100	2016-03-06T16:38:58-08:00	5	1	Stimuli/versionCstim.txt	Procedure/versionCproc.txt	Tetris		TWEED		TWEED	OFF	Cat_Recall_L5	92	Study	No	3	Cat_Recall_L5	ON		3000								
A3J01A18AJBGKX	Collector	1	101	2016-03-06T16:39:03-08:00	5	1	Stimuli/versionCstim.txt	Procedure/versionCproc.txt	Tetris		LYCRA		LYCRA	OFF	Cat_Recall_L5	101	Study	No	3	Cat_Recall_L5	ON		3000								
A3J01A18AJBGKX	Collector	1	102	2016-03-06T16:39:09-08:00	6	1	Stimuli/versionCstim.txt	Procedure/versionCproc.txt	Tetris		BURLAP		BURLAP	OFF	Cat_Recall_L5	86	Study	No	3	Cat_Recall_L5	ON		3000								
A3J01A18AJBGKX	Collector	1	103	2016-03-06T16:39:14-08:00	5	1	Stimuli/versionCstim.txt	Procedure/versionCproc.txt	Tetris		JERSEY		JERSEY	OFF	Cat_Recall_L5	95	Study	No	3	Cat_Recall_L5	ON		3000								
A3J01A18AJBGKX	Collector	1	104	2016-03-06T16:39:19-08:00	5	1	Stimuli/versionCstim.txt	Procedure/versionCproc.txt	Tetris		TERRY		TERRY	OFF	Cat_Recall_L5	91	Study	No	3	Cat_Recall_L5	ON		3000								
A3J01A18AJBGKX	Collector	1	105	2016-03-06T16:39:23-08:00	4	1	Stimuli/versionCstim.txt	Procedure/versionCproc.txt	Tetris		SHEEPSKIN		SHEEPSKIN	OFF	Cat_Recall_L5	94	Study	No	3	Cat_Recall_L5	ON		3000								
A3J01A18AJBGKX	Collector	1	106	2016-03-06T16:39:29-08:00	6	1	Stimuli/versionCstim.txt	Procedure/versionCproc.txt	Tetris		ANGORA		ANGORA	OFF	Cat_Recall_L5	98	Study	No	3	Cat_Recall_L5	ON		3000								
A3J01A18AJBGKX	Collector	1	107	2016-03-06T16:39:37-08:00	8	1	Stimuli/versionCstim.txt	Procedure/versionCproc.txt	Tetris		CALICO		CALICO	OFF	Cat_Recall_L5	84	Study	No	3	Cat_Recall_L5	ON		3000								
A3J01A18AJBGKX	Collector	1	108	2016-03-06T16:39:42-08:00	5	1	Stimuli/versionCstim.txt	Procedure/versionCproc.txt	Tetris		WORSTED		WORSTED	OFF	Cat_Recall_L5	85	Study	No	3	Cat_Recall_L5	ON		3000								
A3J01A18AJBGKX	Collector	1	109	2016-03-06T16:39:46-08:00	4	1	Stimuli/versionCstim.txt	Procedure/versionCproc.txt	Tetris		DENIUM		DENIUM	OFF	Cat_Recall_L5	87	Study	No	3	Cat_Recall_L5	ON		3000								
A3J01A18AJBGKX	Collector	1	110	2016-03-06T16:39:51-08:00	5	1	Stimuli/versionCstim.txt	Procedure/versionCproc.txt	Tetris		FLANNEL		FLANNEL	OFF	Cat_Recall_L5	89	Study	No	3	Cat_Recall_L5	ON		3000								
A3J01A18AJBGKX	Collector	1	111	2016-03-06T16:39:56-08:00	5	1	Stimuli/versionCstim.txt	Procedure/versionCproc.txt	Tetris		ALPACA		ALPACA	OFF	Cat_Recall_L5	99	Study	No	3	Cat_Recall_L5	ON		3000								
A3J01A18AJBGKX	Collector	1	112	2016-03-06T16:40:01-08:00	5	1	Stimuli/versionCstim.txt	Procedure/versionCproc.txt	Tetris		FELT		FELT	OFF	Cat_Recall_L5	96	Study	No	3	Cat_Recall_L5	ON		3000								
A3J01A18AJBGKX	Collector	1	113	2016-03-06T16:40:05-08:00	4	1	Stimuli/versionCstim.txt	Procedure/versionCproc.txt	Tetris		LACE		LACE	OFF	Cat_Recall_L5	97	Study	No	3	Cat_Recall_L5	ON		3000								
A3J01A18AJBGKX	Collector	1	114	2016-03-06T16:40:10-08:00	5	1	Stimuli/versionCstim.txt	Procedure/versionCproc.txt	Tetris		n/a	n/a	n/a	n/a	n/a	0	Instruct	N/A	User	Recall Instructions: Recall the words that you saw from memory by typing them into the dialog box on the next screen. You will have 1 minute. Click the button below to begin.	OFF		2470								
A3J01A18AJBGKX	Collector	1	115	2016-03-06T16:41:13-08:00	63	1	Stimuli/versionCstim.txt	Procedure/versionCproc.txt	Tetris		n/a	n/a	n/a	n/a	n/a	0	freerecall	N/A	60	Recall now in the box. Spelling will not be counted against you. The computer will advance when your minute is up.	OFF	felt <br />  <br /> lace <br />  <br /> linen <br />  <br /> chese cloth <br />  <br /> twill <br />  <br /> tweed <br />  <br /> cordoruoy <br />  <br /> polyester <br />  <br /> worsted <br />  <br /> denim <br />  <br /> flannel <br />  <br /> 	60000	1280	57470						
A3J01A18AJBGKX	Collector	1	116	2016-03-06T16:41:16-08:00	3	1	Stimuli/versionCstim.txt	Procedure/versionCproc.txt	Tetris		n/a	n/a	n/a	n/a	n/a	0	Instruct	N/A	User	Click the button below for the next list.	OFF		1400								
A3J01A18AJBGKX	Collector	1	117	2016-03-06T16:41:21-08:00	5	1	Stimuli/versionCstim.txt	Procedure/versionCproc.txt	Tetris		ROCKING HORSE		ROCKING HORSE	OFF	AdHoc_Recall_L6	108	Study	No	3	AdHoc_Recall_L6	ON		3000								
A3J01A18AJBGKX	Collector	1	118	2016-03-06T16:41:26-08:00	5	1	Stimuli/versionCstim.txt	Procedure/versionCproc.txt	Tetris		CLOGS		CLOGS	OFF	AdHoc_Recall_L6	111	Study	No	3	AdHoc_Recall_L6	ON		3000								
A3J01A18AJBGKX	Collector	1	119	2016-03-06T16:41:30-08:00	4	1	Stimuli/versionCstim.txt	Procedure/versionCproc.txt	Tetris		BASEBALL BAT		BASEBALL BAT	OFF	AdHoc_Recall_L6	113	Study	No	3	AdHoc_Recall_L6	ON		3000								
A3J01A18AJBGKX	Collector	1	120	2016-03-06T16:41:36-08:00	6	1	Stimuli/versionCstim.txt	Procedure/versionCproc.txt	Tetris		CHAIR		CHAIR	OFF	AdHoc_Recall_L6	104	Study	No	3	AdHoc_Recall_L6	ON		3000								
A3J01A18AJBGKX	Collector	1	121	2016-03-06T16:41:41-08:00	5	1	Stimuli/versionCstim.txt	Procedure/versionCproc.txt	Tetris		SHELF		SHELF	OFF	AdHoc_Recall_L6	112	Study	No	3	AdHoc_Recall_L6	ON		3000								
A3J01A18AJBGKX	Collector	1	122	2016-03-06T16:41:46-08:00	5	1	Stimuli/versionCstim.txt	Procedure/versionCproc.txt	Tetris		PENCIL		PENCIL	OFF	AdHoc_Recall_L6	107	Study	No	3	AdHoc_Recall_L6	ON		3000								
A3J01A18AJBGKX	Collector	1	123	2016-03-06T16:41:50-08:00	4	1	Stimuli/versionCstim.txt	Procedure/versionCproc.txt	Tetris		TABLE		TABLE	OFF	AdHoc_Recall_L6	103	Study	No	3	AdHoc_Recall_L6	ON		3000								
A3J01A18AJBGKX	Collector	1	124	2016-03-06T16:41:55-08:00	5	1	Stimuli/versionCstim.txt	Procedure/versionCproc.txt	Tetris		BENCH		BENCH	OFF	AdHoc_Recall_L6	115	Study	No	3	AdHoc_Recall_L6	ON		3000								
A3J01A18AJBGKX	Collector	1	125	2016-03-06T16:41:59-08:00	4	1	Stimuli/versionCstim.txt	Procedure/versionCproc.txt	Tetris		SLED		SLED	OFF	AdHoc_Recall_L6	119	Study	No	3	AdHoc_Recall_L6	ON		3000								
A3J01A18AJBGKX	Collector	1	126	2016-03-06T16:42:04-08:00	5	1	Stimuli/versionCstim.txt	Procedure/versionCproc.txt	Tetris		STAIRS		STAIRS	OFF	AdHoc_Recall_L6	117	Study	No	3	AdHoc_Recall_L6	ON		3000								
A3J01A18AJBGKX	Collector	1	127	2016-03-06T16:42:09-08:00	5	1	Stimuli/versionCstim.txt	Procedure/versionCproc.txt	Tetris		DESK		DESK	OFF	AdHoc_Recall_L6	109	Study	No	3	AdHoc_Recall_L6	ON		3000								
A3J01A18AJBGKX	Collector	1	128	2016-03-06T16:42:14-08:00	5	1	Stimuli/versionCstim.txt	Procedure/versionCproc.txt	Tetris		CABINET		CABINET	OFF	AdHoc_Recall_L6	116	Study	No	3	AdHoc_Recall_L6	ON		3000								
A3J01A18AJBGKX	Collector	1	129	2016-03-06T16:42:20-08:00	6	1	Stimuli/versionCstim.txt	Procedure/versionCproc.txt	Tetris		DOOR		DOOR	OFF	AdHoc_Recall_L6	105	Study	No	3	AdHoc_Recall_L6	ON		3000								
A3J01A18AJBGKX	Collector	1	130	2016-03-06T16:42:25-08:00	5	1	Stimuli/versionCstim.txt	Procedure/versionCproc.txt	Tetris		GAZEBO		GAZEBO	OFF	AdHoc_Recall_L6	106	Study	No	3	AdHoc_Recall_L6	ON		3000								
A3J01A18AJBGKX	Collector	1	131	2016-03-06T16:42:32-08:00	7	1	Stimuli/versionCstim.txt	Procedure/versionCproc.txt	Tetris		HOUSE		HOUSE	OFF	AdHoc_Recall_L6	102	Study	No	3	AdHoc_Recall_L6	ON		3000								
A3J01A18AJBGKX	Collector	1	132	2016-03-06T16:42:38-08:00	6	1	Stimuli/versionCstim.txt	Procedure/versionCproc.txt	Tetris		DOCK		DOCK	OFF	AdHoc_Recall_L6	114	Study	No	3	AdHoc_Recall_L6	ON		3000								
A3J01A18AJBGKX	Collector	1	133	2016-03-06T16:42:43-08:00	5	1	Stimuli/versionCstim.txt	Procedure/versionCproc.txt	Tetris		BOOMERANG		BOOMERANG	OFF	AdHoc_Recall_L6	120	Study	No	3	AdHoc_Recall_L6	ON		3000								
A3J01A18AJBGKX	Collector	1	134	2016-03-06T16:42:50-08:00	7	1	Stimuli/versionCstim.txt	Procedure/versionCproc.txt	Tetris		RULER		RULER	OFF	AdHoc_Recall_L6	118	Study	No	3	AdHoc_Recall_L6	ON		3000								
A3J01A18AJBGKX	Collector	1	135	2016-03-06T16:42:57-08:00	7	1	Stimuli/versionCstim.txt	Procedure/versionCproc.txt	Tetris		BARN		BARN	OFF	AdHoc_Recall_L6	121	Study	No	3	AdHoc_Recall_L6	ON		3000								
A3J01A18AJBGKX	Collector	1	136	2016-03-06T16:43:04-08:00	7	1	Stimuli/versionCstim.txt	Procedure/versionCproc.txt	Tetris		SHIP		SHIP	OFF	AdHoc_Recall_L6	110	Study	No	3	AdHoc_Recall_L6	ON		3000								
A3J01A18AJBGKX	Collector	1	137	2016-03-06T16:43:10-08:00	6	1	Stimuli/versionCstim.txt	Procedure/versionCproc.txt	Tetris		n/a	n/a	n/a	n/a	n/a	0	Instruct	N/A	User	Recall Instructions: Recall the words that you saw from memory by typing them into the dialog box on the next screen. You will have 1 minute. Click the button below to begin.	OFF		2700								
A3J01A18AJBGKX	Collector	1	138	2016-03-06T16:44:15-08:00	65	1	Stimuli/versionCstim.txt	Procedure/versionCproc.txt	Tetris		n/a	n/a	n/a	n/a	n/a	0	freerecall	N/A	60	Recall now in the box. Spelling will not be counted against you. The computer will advance when your minute is up.	OFF	Ruler <br />  <br /> Clogs <br />  <br /> Chair <br />  <br /> Desk <br />  <br /> Rocking Horse <br />  <br /> Pencil <br />  <br /> table <br />  <br /> Door <br />  <br /> Shelf <br />  <br /> 	60000	1470	28340						
A3J01A18AJBGKX	Collector	1	139	2016-03-06T16:44:30-08:00	15	1	Stimuli/versionCstim.txt	Procedure/versionCproc.txt	Tetris		n/a	n/a	n/a	n/a	n/a	0	Instruct	N/A	User	Now you will complete a recognition memory test based on the last 6 lists that you have studied. A word will be displayed on the computer screen and you are to decide whether the word was studied in the last 6 lists. If the word was studied, click the "yes" button. If the word was not studied, click the "no" button. Respond as quickly as possible without compromising accuracy.	OFF		13070								
A3J01A18AJBGKX	Collector	1	140	2016-03-06T16:44:32-08:00	2	1	Stimuli/versionCstim.txt	Procedure/versionCproc.txt	Tetris		n/a	n/a	n/a	n/a	n/a	0	Instruct	N/A	User	Click the button below to begin the test.	OFF		1530								
A3J01A18AJBGKX	Collector	1	141	2016-03-06T16:44:36-08:00	4	1	Stimuli/versionCstim.txt	Procedure/versionCproc.txt	Tetris		FIGHTS		FIGHTS	OFF	NPLI_AdHoc_Recall	238	seqrec	No	User	RGN Test	ON	No	1730								
A3J01A18AJBGKX	Collector	1	142	2016-03-06T16:44:38-08:00	2	1	Stimuli/versionCstim.txt	Procedure/versionCproc.txt	Tetris		LINEN		LINEN	OFF	LI_Cat_Recall	162	seqrec	No	User	RGN Test	ON	Yes	1170								
A3J01A18AJBGKX	Collector	1	143	2016-03-06T16:44:41-08:00	3	1	Stimuli/versionCstim.txt	Procedure/versionCproc.txt	Tetris		ZIGZAG		ZIGZAG	OFF	NPCI_Unrel_Recall	272	seqrec	No	User	RGN Test	ON	No	1570								
A3J01A18AJBGKX	Collector	1	144	2016-03-06T16:44:43-08:00	2	1	Stimuli/versionCstim.txt	Procedure/versionCproc.txt	Tetris		BARRACKS		BARRACKS	OFF	NPLI_Cat_Recall	251	seqrec	No	User	RGN Test	ON	No	190								
A3J01A18AJBGKX	Collector	1	145	2016-03-06T16:44:46-08:00	3	1	Stimuli/versionCstim.txt	Procedure/versionCproc.txt	Tetris		CAROUSEL		CAROUSEL	OFF	CI_AdHoc_Recall	190	seqrec	No	User	RGN Test	ON	No	1360								
A3J01A18AJBGKX	Collector	1	146	2016-03-06T16:44:49-08:00	3	1	Stimuli/versionCstim.txt	Procedure/versionCproc.txt	Tetris		FAN		FAN	OFF	CI_AdHoc_Recall	187	seqrec	No	User	RGN Test	ON	Yes	1200								
A3J01A18AJBGKX	Collector	1	147	2016-03-06T16:44:54-08:00	5	1	Stimuli/versionCstim.txt	Procedure/versionCproc.txt	Tetris		DESK		DESK	OFF	LI_AdHoc_Recall	175	seqrec	No	User	RGN Test	ON	Yes	1410								
A3J01A18AJBGKX	Collector	1	148	2016-03-06T16:44:57-08:00	3	1	Stimuli/versionCstim.txt	Procedure/versionCproc.txt	Tetris		FENCE		FENCE	OFF	CI_AdHoc_Recall	210	seqrec	No	User	RGN Test	ON	No	1210								
A3J01A18AJBGKX	Collector	1	149	2016-03-06T16:44:59-08:00	2	1	Stimuli/versionCstim.txt	Procedure/versionCproc.txt	Tetris		CAVE		CAVE	OFF	NPCI_Cat_Recall	289	seqrec	No	User	RGN Test	ON	No	770								
A3J01A18AJBGKX	Collector	1	150	2016-03-06T16:45:01-08:00	2	1	Stimuli/versionCstim.txt	Procedure/versionCproc.txt	Tetris		SPRINKLER		SPRINKLER	OFF	NPLI_Cat_Recall	256	seqrec	No	User	RGN Test	ON	No	730								
A3J01A18AJBGKX	Collector	1	151	2016-03-06T16:45:04-08:00	3	1	Stimuli/versionCstim.txt	Procedure/versionCproc.txt	Tetris		DUPLEX		DUPLEX	OFF	NPLI_Cat_Recall	249	seqrec	No	User	RGN Test	ON	No	770								
A3J01A18AJBGKX	Collector	1	152	2016-03-06T16:45:07-08:00	3	1	Stimuli/versionCstim.txt	Procedure/versionCproc.txt	Tetris		NYLON		NYLON	OFF	CI_Cat_Recall	204	seqrec	No	User	RGN Test	ON	Yes	1520								
A3J01A18AJBGKX	Collector	1	153	2016-03-06T16:45:10-08:00	3	1	Stimuli/versionCstim.txt	Procedure/versionCproc.txt	Tetris		DEODORANT		DEODORANT	OFF	NPLI_AdHoc_Recall	226	seqrec	No	User	RGN Test	ON	No	920								
A3J01A18AJBGKX	Collector	1	154	2016-03-06T16:45:14-08:00	4	1	Stimuli/versionCstim.txt	Procedure/versionCproc.txt	Tetris		CEREAL		CEREAL	OFF	NPLI_Unrel_Recall	218	seqrec	No	User	RGN Test	ON	No	380								
A3J01A18AJBGKX	Collector	1	155	2016-03-06T16:45:21-08:00	7	1	Stimuli/versionCstim.txt	Procedure/versionCproc.txt	Tetris		SATIN		SATIN	OFF	CI_Cat_Recall	206	seqrec	No	User	RGN Test	ON	Yes	2190								
A3J01A18AJBGKX	Collector	1	156	2016-03-06T16:45:24-08:00	3	1	Stimuli/versionCstim.txt	Procedure/versionCproc.txt	Tetris		GINGER		GINGER	OFF	LI_Cat_Recall	128	seqrec	No	User	RGN Test	ON	Yes	1570								
A3J01A18AJBGKX	Collector	1	157	2016-03-06T16:45:29-08:00	5	1	Stimuli/versionCstim.txt	Procedure/versionCproc.txt	Tetris		DOWEL		DOWEL	OFF	NPLI_Unrel_Recall	267	seqrec	No	User	RGN Test	ON	No	1320								
A3J01A18AJBGKX	Collector	1	158	2016-03-06T16:45:31-08:00	2	1	Stimuli/versionCstim.txt	Procedure/versionCproc.txt	Tetris		TOILET		TOILET	OFF	NPCI_AdHoc_Recall	278	seqrec	No	User	RGN Test	ON	No	960								
A3J01A18AJBGKX	Collector	1	159	2016-03-06T16:45:34-08:00	3	1	Stimuli/versionCstim.txt	Procedure/versionCproc.txt	Tetris		CLOGS		CLOGS	OFF	LI_AdHoc_Recall	176	seqrec	No	User	RGN Test	ON	Yes	830								
A3J01A18AJBGKX	Collector	1	160	2016-03-06T16:45:37-08:00	3	1	Stimuli/versionCstim.txt	Procedure/versionCproc.txt	Tetris		HAIR DRYER		HAIR DRYER	OFF	NPLI_AdHoc_Recall	230	seqrec	No	User	RGN Test	ON	No	1130								
A3J01A18AJBGKX	Collector	1	161	2016-03-06T16:45:40-08:00	3	1	Stimuli/versionCstim.txt	Procedure/versionCproc.txt	Tetris		KNOCK		KNOCK	OFF	NPLI_Unrel_Recall	266	seqrec	No	User	RGN Test	ON	No	1330								
A3J01A18AJBGKX	Collector	1	162	2016-03-06T16:45:42-08:00	2	1	Stimuli/versionCstim.txt	Procedure/versionCproc.txt	Tetris		SHOWER		SHOWER	OFF	NPCI_AdHoc_Recall	277	seqrec	No	User	RGN Test	ON	No	780								
A3J01A18AJBGKX	Collector	1	163	2016-03-06T16:45:45-08:00	3	1	Stimuli/versionCstim.txt	Procedure/versionCproc.txt	Tetris		YO-YO		YO-YO	OFF	LI_AdHoc_Recall	141	seqrec	No	User	RGN Test	ON	Yes	1020								
A3J01A18AJBGKX	Collector	1	164	2016-03-06T16:45:48-08:00	3	1	Stimuli/versionCstim.txt	Procedure/versionCproc.txt	Tetris		HAZE		HAZE	OFF	CI_Unrel_Recall	195	seqrec	No	User	RGN Test	ON	No	560								
A3J01A18AJBGKX	Collector	1	165	2016-03-06T16:45:50-08:00	2	1	Stimuli/versionCstim.txt	Procedure/versionCproc.txt	Tetris		ZONE		ZONE	OFF	NPLI_Unrel_Recall	263	seqrec	No	User	RGN Test	ON	No	750								
A3J01A18AJBGKX	Collector	1	166	2016-03-06T16:45:52-08:00	2	1	Stimuli/versionCstim.txt	Procedure/versionCproc.txt	Tetris		RAYON		RAYON	OFF	CI_Cat_Recall	203	seqrec	No	User	RGN Test	ON	Yes	950								
A3J01A18AJBGKX	Collector	1	167	2016-03-06T16:45:55-08:00	3	1	Stimuli/versionCstim.txt	Procedure/versionCproc.txt	Tetris		BASEBALL BAT		BASEBALL BAT	OFF	LI_AdHoc_Recall	177	seqrec	No	User	RGN Test	ON	Yes	560								
A3J01A18AJBGKX	Collector	1	168	2016-03-06T16:45:57-08:00	2	1	Stimuli/versionCstim.txt	Procedure/versionCproc.txt	Tetris		MANUAL		MANUAL	OFF	LI_Unrel_Recall	149	seqrec	No	User	RGN Test	ON	No	1080								
A3J01A18AJBGKX	Collector	1	169	2016-03-06T16:45:59-08:00	2	1	Stimuli/versionCstim.txt	Procedure/versionCproc.txt	Tetris		SLED		SLED	OFF	LI_AdHoc_Recall	180	seqrec	No	User	RGN Test	ON	Yes	1000								
A3J01A18AJBGKX	Collector	1	170	2016-03-06T16:46:02-08:00	3	1	Stimuli/versionCstim.txt	Procedure/versionCproc.txt	Tetris		HERMIT		HERMIT	OFF	LI_Unrel_Recall	146	seqrec	No	User	RGN Test	ON	Yes	510								
A3J01A18AJBGKX	Collector	1	171	2016-03-06T16:46:05-08:00	3	1	Stimuli/versionCstim.txt	Procedure/versionCproc.txt	Tetris		HARVEST		HARVEST	OFF	LI_Unrel_Recall	150	seqrec	No	User	RGN Test	ON	No	1650								
A3J01A18AJBGKX	Collector	1	172	2016-03-06T16:46:07-08:00	2	1	Stimuli/versionCstim.txt	Procedure/versionCproc.txt	Tetris		WINDMILL		WINDMILL	OFF	LI_AdHoc_Recall	140	seqrec	No	User	RGN Test	ON	Yes	1060								
A3J01A18AJBGKX	Collector	1	173	2016-03-06T16:46:11-08:00	4	1	Stimuli/versionCstim.txt	Procedure/versionCproc.txt	Tetris		CELERY SEED		CELERY SEED	OFF	LI_Cat_Recall	130	seqrec	No	User	RGN Test	ON	Yes	890								
A3J01A18AJBGKX	Collector	1	174	2016-03-06T16:46:13-08:00	2	1	Stimuli/versionCstim.txt	Procedure/versionCproc.txt	Tetris		CURRY		CURRY	OFF	LI_Cat_Recall	126	seqrec	No	User	RGN Test	ON	Yes	750								
A3J01A18AJBGKX	Collector	1	175	2016-03-06T16:46:15-08:00	2	1	Stimuli/versionCstim.txt	Procedure/versionCproc.txt	Tetris		VANILLA		VANILLA	OFF	LI_Cat_Recall	122	seqrec	No	User	RGN Test	ON	Yes	700								
A3J01A18AJBGKX	Collector	1	176	2016-03-06T16:46:18-08:00	3	1	Stimuli/versionCstim.txt	Procedure/versionCproc.txt	Tetris		CHILI POWDER		CHILI POWDER	OFF	LI_Cat_Recall	129	seqrec	No	User	RGN Test	ON	Yes	1070								
A3J01A18AJBGKX	Collector	1	177	2016-03-06T16:46:21-08:00	3	1	Stimuli/versionCstim.txt	Procedure/versionCproc.txt	Tetris		SALT		SALT	OFF	CI_Cat_Recall	186	seqrec	No	User	RGN Test	ON	No	1670								
A3J01A18AJBGKX	Collector	1	178	2016-03-06T16:46:26-08:00	5	1	Stimuli/versionCstim.txt	Procedure/versionCproc.txt	Tetris		WOOL		WOOL	OFF	CI_Cat_Recall	202	seqrec	No	User	RGN Test	ON	No	1390								
A3J01A18AJBGKX	Collector	1	179	2016-03-06T16:46:30-08:00	4	1	Stimuli/versionCstim.txt	Procedure/versionCproc.txt	Tetris		ACORN		ACORN	OFF	LI_Unrel_Recall	160	seqrec	No	User	RGN Test	ON	Yes	1730								
A3J01A18AJBGKX	Collector	1	180	2016-03-06T16:46:33-08:00	3	1	Stimuli/versionCstim.txt	Procedure/versionCproc.txt	Tetris		CINNAMON		CINNAMON	OFF	CI_Cat_Recall	183	seqrec	No	User	RGN Test	ON	Yes	1240								
A3J01A18AJBGKX	Collector	1	181	2016-03-06T16:46:38-08:00	5	1	Stimuli/versionCstim.txt	Procedure/versionCproc.txt	Tetris		VALVE		VALVE	OFF	LI_Unrel_Recall	154	seqrec	No	User	RGN Test	ON	No	1520								
A3J01A18AJBGKX	Collector	1	182	2016-03-06T16:46:41-08:00	3	1	Stimuli/versionCstim.txt	Procedure/versionCproc.txt	Tetris		SHAVER		SHAVER	OFF	NPLI_AdHoc_Recall	227	seqrec	No	User	RGN Test	ON	No	1070								
A3J01A18AJBGKX	Collector	1	183	2016-03-06T16:46:44-08:00	3	1	Stimuli/versionCstim.txt	Procedure/versionCproc.txt	Tetris		QUICHE		QUICHE	OFF	LI_Unrel_Recall	152	seqrec	No	User	RGN Test	ON	Yes	1970								
A3J01A18AJBGKX	Collector	1	184	2016-03-06T16:46:47-08:00	3	1	Stimuli/versionCstim.txt	Procedure/versionCproc.txt	Tetris		GARLIC		GARLIC	OFF	CI_Cat_Recall	182	seqrec	No	User	RGN Test	ON	Yes	1020								
A3J01A18AJBGKX	Collector	1	185	2016-03-06T16:46:51-08:00	4	1	Stimuli/versionCstim.txt	Procedure/versionCproc.txt	Tetris		BICYCLE		BICYCLE	OFF	LI_AdHoc_Recall	137	seqrec	No	User	RGN Test	ON	Yes	960								
A3J01A18AJBGKX	Collector	1	186	2016-03-06T16:46:55-08:00	4	1	Stimuli/versionCstim.txt	Procedure/versionCproc.txt	Tetris		TROWEL		TROWEL	OFF	NPLI_Cat_Recall	254	seqrec	No	User	RGN Test	ON	No	1450								
A3J01A18AJBGKX	Collector	1	187	2016-03-06T16:46:59-08:00	4	1	Stimuli/versionCstim.txt	Procedure/versionCproc.txt	Tetris		CIMINAL		CIMINAL	OFF	NPCI_AdHoc_Recall	285	seqrec	No	User	RGN Test	ON	No	2480								
A3J01A18AJBGKX	Collector	1	188	2016-03-06T16:47:03-08:00	4	1	Stimuli/versionCstim.txt	Procedure/versionCproc.txt	Tetris		NEEDLE		NEEDLE	OFF	NPLI_AdHoc_Recall	240	seqrec	No	User	RGN Test	ON	No	1240								
A3J01A18AJBGKX	Collector	1	189	2016-03-06T16:47:10-08:00	7	1	Stimuli/versionCstim.txt	Procedure/versionCproc.txt	Tetris		HOE		HOE	OFF	NPCI_Cat_Recall	293	seqrec	No	User	RGN Test	ON	Yes	4260								
A3J01A18AJBGKX	Collector	1	190	2016-03-06T16:47:13-08:00	3	1	Stimuli/versionCstim.txt	Procedure/versionCproc.txt	Tetris		ROTOR		ROTOR	OFF	CI_AdHoc_Recall	191	seqrec	No	User	RGN Test	ON	No	1670								
A3J01A18AJBGKX	Collector	1	191	2016-03-06T16:47:18-08:00	5	1	Stimuli/versionCstim.txt	Procedure/versionCproc.txt	Tetris		CHEESECAKE		CHEESECAKE	OFF	NPCI_Unrel_Recall	273	seqrec	No	User	RGN Test	ON	No	2940								
A3J01A18AJBGKX	Collector	1	192	2016-03-06T16:47:21-08:00	3	1	Stimuli/versionCstim.txt	Procedure/versionCproc.txt	Tetris		WARDEN		WARDEN	OFF	NPCI_AdHoc_Recall	286	seqrec	No	User	RGN Test	ON	No	1070								
A3J01A18AJBGKX	Collector	1	193	2016-03-06T16:47:24-08:00	3	1	Stimuli/versionCstim.txt	Procedure/versionCproc.txt	Tetris		ONION SALT		ONION SALT	OFF	LI_Cat_Recall	124	seqrec	No	User	RGN Test	ON	Yes	1140								
A3J01A18AJBGKX	Collector	1	194	2016-03-06T16:47:28-08:00	4	1	Stimuli/versionCstim.txt	Procedure/versionCproc.txt	Tetris		AVENUE		AVENUE	OFF	NPLI_Unrel_Recall	213	seqrec	No	User	RGN Test	ON	No	2290								
A3J01A18AJBGKX	Collector	1	195	2016-03-06T16:47:32-08:00	4	1	Stimuli/versionCstim.txt	Procedure/versionCproc.txt	Tetris		LADDER		LADDER	OFF	NPLI_Unrel_Recall	269	seqrec	No	User	RGN Test	ON	Yes	2630								
A3J01A18AJBGKX	Collector	1	196	2016-03-06T16:47:37-08:00	5	1	Stimuli/versionCstim.txt	Procedure/versionCproc.txt	Tetris		DIARY		DIARY	OFF	NPCI_Unrel_Recall	300	seqrec	No	User	RGN Test	ON	No	2830								
A3J01A18AJBGKX	Collector	1	197	2016-03-06T16:47:40-08:00	3	1	Stimuli/versionCstim.txt	Procedure/versionCproc.txt	Tetris		RAKE		RAKE	OFF	NPCI_Cat_Recall	294	seqrec	No	User	RGN Test	ON	No	920								
A3J01A18AJBGKX	Collector	1	198	2016-03-06T16:47:43-08:00	3	1	Stimuli/versionCstim.txt	Procedure/versionCproc.txt	Tetris		RAZOR		RAZOR	OFF	NPCI_AdHoc_Recall	281	seqrec	No	User	RGN Test	ON	Yes	760								
A3J01A18AJBGKX	Collector	1	199	2016-03-06T16:47:46-08:00	3	1	Stimuli/versionCstim.txt	Procedure/versionCproc.txt	Tetris		MUSTARD		MUSTARD	OFF	CI_Cat_Recall	185	seqrec	No	User	RGN Test	ON	No	1510								
A3J01A18AJBGKX	Collector	1	200	2016-03-06T16:47:48-08:00	2	1	Stimuli/versionCstim.txt	Procedure/versionCproc.txt	Tetris		BLOSSOM		BLOSSOM	OFF	LI_Unrel_Recall	153	seqrec	No	User	RGN Test	ON	No	1130								
A3J01A18AJBGKX	Collector	1	201	2016-03-06T16:47:51-08:00	3	1	Stimuli/versionCstim.txt	Procedure/versionCproc.txt	Tetris		FLURRY		FLURRY	OFF	NPLI_Unrel_Recall	214	seqrec	No	User	RGN Test	ON	No	1300								
A3J01A18AJBGKX	Collector	1	202	2016-03-06T16:47:54-08:00	3	1	Stimuli/versionCstim.txt	Procedure/versionCproc.txt	Tetris		ALPACA		ALPACA	OFF	LI_Cat_Recall	170	seqrec	No	User	RGN Test	ON	Yes	1070								
A3J01A18AJBGKX	Collector	1	203	2016-03-06T16:47:57-08:00	3	1	Stimuli/versionCstim.txt	Procedure/versionCproc.txt	Tetris		CLIPPERS		CLIPPERS	OFF	NPLI_Cat_Recall	258	seqrec	No	User	RGN Test	ON	No	920								
A3J01A18AJBGKX	Collector	1	204	2016-03-06T16:48:00-08:00	3	1	Stimuli/versionCstim.txt	Procedure/versionCproc.txt	Tetris		APARTMENT		APARTMENT	OFF	NPCI_Cat_Recall	287	seqrec	No	User	RGN Test	ON	No	750								
A3J01A18AJBGKX	Collector	1	205	2016-03-06T16:48:04-08:00	4	1	Stimuli/versionCstim.txt	Procedure/versionCproc.txt	Tetris		ORPHAN		ORPHAN	OFF	LI_Unrel_Recall	148	seqrec	No	User	RGN Test	ON	Yes	1570								
A3J01A18AJBGKX	Collector	1	206	2016-03-06T16:48:07-08:00	3	1	Stimuli/versionCstim.txt	Procedure/versionCproc.txt	Tetris		BROTH		BROTH	OFF	NPLI_Unrel_Recall	268	seqrec	No	User	RGN Test	ON	No	1250								
A3J01A18AJBGKX	Collector	1	207	2016-03-06T16:48:10-08:00	3	1	Stimuli/versionCstim.txt	Procedure/versionCproc.txt	Tetris		LOCKS		LOCKS	OFF	NPCI_AdHoc_Recall	283	seqrec	No	User	RGN Test	ON	No	2060								
A3J01A18AJBGKX	Collector	1	208	2016-03-06T16:48:14-08:00	4	1	Stimuli/versionCstim.txt	Procedure/versionCproc.txt	Tetris		SPHERE		SPHERE	OFF	LI_AdHoc_Recall	134	seqrec	No	User	RGN Test	ON	Yes	1300								
A3J01A18AJBGKX	Collector	1	209	2016-03-06T16:48:18-08:00	4	1	Stimuli/versionCstim.txt	Procedure/versionCproc.txt	Tetris		DENTIST		DENTIST	OFF	LI_Unrel_Recall	161	seqrec	No	User	RGN Test	ON	Yes	1870								
A3J01A18AJBGKX	Collector	1	210	2016-03-06T16:48:21-08:00	3	1	Stimuli/versionCstim.txt	Procedure/versionCproc.txt	Tetris		BLAZE		BLAZE	OFF	NPLI_Unrel_Recall	220	seqrec	No	User	RGN Test	ON	No	1010								
A3J01A18AJBGKX	Collector	1	211	2016-03-06T16:48:23-08:00	2	1	Stimuli/versionCstim.txt	Procedure/versionCproc.txt	Tetris		BARN		BARN	OFF	LI_AdHoc_Recall	181	seqrec	No	User	RGN Test	ON	Yes	1060								
A3J01A18AJBGKX	Collector	1	212	2016-03-06T16:48:27-08:00	4	1	Stimuli/versionCstim.txt	Procedure/versionCproc.txt	Tetris		PLOW		PLOW	OFF	NPLI_Cat_Recall	253	seqrec	No	User	RGN Test	ON	No	1330								
A3J01A18AJBGKX	Collector	1	213	2016-03-06T16:48:34-08:00	7	1	Stimuli/versionCstim.txt	Procedure/versionCproc.txt	Tetris		TRIMMER		TRIMMER	OFF	NPLI_Cat_Recall	259	seqrec	No	User	RGN Test	ON	No	1410								
A3J01A18AJBGKX	Collector	1	214	2016-03-06T16:48:36-08:00	2	1	Stimuli/versionCstim.txt	Procedure/versionCproc.txt	Tetris		EPISODE		EPISODE	OFF	LI_Unrel_Recall	145	seqrec	No	User	RGN Test	ON	No	1210								
A3J01A18AJBGKX	Collector	1	215	2016-03-06T16:48:40-08:00	4	1	Stimuli/versionCstim.txt	Procedure/versionCproc.txt	Tetris		TOOTHBRUSH		TOOTHBRUSH	OFF	NPCI_AdHoc_Recall	279	seqrec	No	User	RGN Test	ON	Yes	1340								
A3J01A18AJBGKX	Collector	1	216	2016-03-06T16:48:42-08:00	2	1	Stimuli/versionCstim.txt	Procedure/versionCproc.txt	Tetris		HUT		HUT	OFF	NPCI_Cat_Recall	290	seqrec	No	User	RGN Test	ON	No	920								
A3J01A18AJBGKX	Collector	1	217	2016-03-06T16:48:47-08:00	5	1	Stimuli/versionCstim.txt	Procedure/versionCproc.txt	Tetris		DWARF		DWARF	OFF	NPLI_Unrel_Recall	219	seqrec	No	User	RGN Test	ON	No	2080								
A3J01A18AJBGKX	Collector	1	218	2016-03-06T16:48:50-08:00	3	1	Stimuli/versionCstim.txt	Procedure/versionCproc.txt	Tetris		CALENDAR		CALENDAR	OFF	CI_Unrel_Recall	196	seqrec	No	User	RGN Test	ON	No	1460								
A3J01A18AJBGKX	Collector	1	219	2016-03-06T16:48:54-08:00	4	1	Stimuli/versionCstim.txt	Procedure/versionCproc.txt	Tetris		CANDLE		CANDLE	OFF	NPLI_AdHoc_Recall	231	seqrec	No	User	RGN Test	ON	Yes	1730								
A3J01A18AJBGKX	Collector	1	220	2016-03-06T16:48:59-08:00	5	1	Stimuli/versionCstim.txt	Procedure/versionCproc.txt	Tetris		IGLOO		IGLOO	OFF	NPLI_Cat_Recall	245	seqrec	No	User	RGN Test	ON	Yes	1480								
A3J01A18AJBGKX	Collector	1	221	2016-03-06T16:49:03-08:00	4	1	Stimuli/versionCstim.txt	Procedure/versionCproc.txt	Tetris		BRISKET		BRISKET	OFF	NPCI_Unrel_Recall	298	seqrec	No	User	RGN Test	ON	No	1200								
A3J01A18AJBGKX	Collector	1	222	2016-03-06T16:49:06-08:00	3	1	Stimuli/versionCstim.txt	Procedure/versionCproc.txt	Tetris		PALACE		PALACE	OFF	NPLI_Cat_Recall	250	seqrec	No	User	RGN Test	ON	No	1270								
A3J01A18AJBGKX	Collector	1	223	2016-03-06T16:49:09-08:00	3	1	Stimuli/versionCstim.txt	Procedure/versionCproc.txt	Tetris		LABEL		LABEL	OFF	NPCI_Unrel_Recall	276	seqrec	No	User	RGN Test	ON	No	860								
A3J01A18AJBGKX	Collector	1	224	2016-03-06T16:49:11-08:00	2	1	Stimuli/versionCstim.txt	Procedure/versionCproc.txt	Tetris		GLOVE		GLOVE	OFF	NPCI_Cat_Recall	295	seqrec	No	User	RGN Test	ON	No	1010								
A3J01A18AJBGKX	Collector	1	225	2016-03-06T16:49:14-08:00	3	1	Stimuli/versionCstim.txt	Procedure/versionCproc.txt	Tetris		OREGANO		OREGANO	OFF	LI_Cat_Recall	123	seqrec	No	User	RGN Test	ON	Yes	1260								
A3J01A18AJBGKX	Collector	1	226	2016-03-06T16:49:16-08:00	2	1	Stimuli/versionCstim.txt	Procedure/versionCproc.txt	Tetris		DETECTIVE		DETECTIVE	OFF	NPLI_AdHoc_Recall	241	seqrec	No	User	RGN Test	ON	No	780								
A3J01A18AJBGKX	Collector	1	227	2016-03-06T16:49:18-08:00	2	1	Stimuli/versionCstim.txt	Procedure/versionCproc.txt	Tetris		CLASS		CLASS	OFF	NPLI_Unrel_Recall	270	seqrec	No	User	RGN Test	ON	No	1060								
A3J01A18AJBGKX	Collector	1	228	2016-03-06T16:49:21-08:00	3	1	Stimuli/versionCstim.txt	Procedure/versionCproc.txt	Tetris		CANTEEN		CANTEEN	OFF	LI_Unrel_Recall	151	seqrec	No	User	RGN Test	ON	Yes	1450								
A3J01A18AJBGKX	Collector	1	229	2016-03-06T16:49:24-08:00	3	1	Stimuli/versionCstim.txt	Procedure/versionCproc.txt	Tetris		HAYSTACK		HAYSTACK	OFF	CI_Unrel_Recall	194	seqrec	No	User	RGN Test	ON	Yes	1030								
A3J01A18AJBGKX	Collector	1	230	2016-03-06T16:49:26-08:00	2	1	Stimuli/versionCstim.txt	Procedure/versionCproc.txt	Tetris		WHALE		WHALE	OFF	LI_Unrel_Recall	147	seqrec	No	User	RGN Test	ON	Yes	800								
A3J01A18AJBGKX	Collector	1	231	2016-03-06T16:49:31-08:00	5	1	Stimuli/versionCstim.txt	Procedure/versionCproc.txt	Tetris		SIEVE		SIEVE	OFF	NPLI_Cat_Recall	261	seqrec	No	User	RGN Test	ON	Yes	1920								
A3J01A18AJBGKX	Collector	1	232	2016-03-06T16:49:33-08:00	2	1	Stimuli/versionCstim.txt	Procedure/versionCproc.txt	Tetris		LACE		LACE	OFF	LI_Cat_Recall	169	seqrec	No	User	RGN Test	ON	Yes	870								
A3J01A18AJBGKX	Collector	1	233	2016-03-06T16:49:37-08:00	4	1	Stimuli/versionCstim.txt	Procedure/versionCproc.txt	Tetris		ISSUE		ISSUE	OFF	NPCI_Unrel_Recall	274	seqrec	No	User	RGN Test	ON	No	1260								
A3J01A18AJBGKX	Collector	1	234	2016-03-06T16:49:39-08:00	2	1	Stimuli/versionCstim.txt	Procedure/versionCproc.txt	Tetris		DAY		DAY	OFF	NPLI_Unrel_Recall	265	seqrec	No	User	RGN Test	ON	No	890								
A3J01A18AJBGKX	Collector	1	235	2016-03-06T16:49:41-08:00	2	1	Stimuli/versionCstim.txt	Procedure/versionCproc.txt	Tetris		GENE		GENE	OFF	CI_Unrel_Recall	201	seqrec	No	User	RGN Test	ON	No	880								
A3J01A18AJBGKX	Collector	1	236	2016-03-06T16:49:44-08:00	3	1	Stimuli/versionCstim.txt	Procedure/versionCproc.txt	Tetris		FOOTHILL		FOOTHILL	OFF	NPCI_Unrel_Recall	297	seqrec	No	User	RGN Test	ON	No	770								
A3J01A18AJBGKX	Collector	1	237	2016-03-06T16:49:47-08:00	3	1	Stimuli/versionCstim.txt	Procedure/versionCproc.txt	Tetris		TURMERIC		TURMERIC	OFF	LI_Cat_Recall	131	seqrec	No	User	RGN Test	ON	Yes	1310								
A3J01A18AJBGKX	Collector	1	238	2016-03-06T16:49:52-08:00	5	1	Stimuli/versionCstim.txt	Procedure/versionCproc.txt	Tetris		CABLE		CABLE	OFF	CI_Unrel_Recall	193	seqrec	No	User	RGN Test	ON	No	2620								
A3J01A18AJBGKX	Collector	1	239	2016-03-06T16:49:56-08:00	4	1	Stimuli/versionCstim.txt	Procedure/versionCproc.txt	Tetris		SCALE		SCALE	OFF	NPLI_AdHoc_Recall	222	seqrec	No	User	RGN Test	ON	No	1430								
A3J01A18AJBGKX	Collector	1	240	2016-03-06T16:50:00-08:00	4	1	Stimuli/versionCstim.txt	Procedure/versionCproc.txt	Tetris		BENCH		BENCH	OFF	LI_AdHoc_Recall	178	seqrec	No	User	RGN Test	ON	Yes	2250								
A3J01A18AJBGKX	Collector	1	241	2016-03-06T16:50:06-08:00	6	1	Stimuli/versionCstim.txt	Procedure/versionCproc.txt	Tetris		INFANT		INFANT	OFF	LI_Unrel_Recall	155	seqrec	No	User	RGN Test	ON	Yes	1450								
A3J01A18AJBGKX	Collector	1	242	2016-03-06T16:50:10-08:00	4	1	Stimuli/versionCstim.txt	Procedure/versionCproc.txt	Tetris		PENCIL		PENCIL	OFF	LI_AdHoc_Recall	174	seqrec	No	User	RGN Test	ON	Yes	840								
A3J01A18AJBGKX	Collector	1	243	2016-03-06T16:50:14-08:00	4	1	Stimuli/versionCstim.txt	Procedure/versionCproc.txt	Tetris		STICK		STICK	OFF	CI_AdHoc_Recall	208	seqrec	No	User	RGN Test	ON	No	1480								
A3J01A18AJBGKX	Collector	1	244	2016-03-06T16:50:17-08:00	3	1	Stimuli/versionCstim.txt	Procedure/versionCproc.txt	Tetris		VANITY		VANITY	OFF	NPLI_AdHoc_Recall	229	seqrec	No	User	RGN Test	ON	No	980								
A3J01A18AJBGKX	Collector	1	245	2016-03-06T16:50:20-08:00	3	1	Stimuli/versionCstim.txt	Procedure/versionCproc.txt	Tetris		WORSTED		WORSTED	OFF	LI_Cat_Recall	163	seqrec	No	User	RGN Test	ON	Yes	890								
A3J01A18AJBGKX	Collector	1	246	2016-03-06T16:50:23-08:00	3	1	Stimuli/versionCstim.txt	Procedure/versionCproc.txt	Tetris		LANTERN		LANTERN	OFF	LI_Unrel_Recall	143	seqrec	No	User	RGN Test	ON	Yes	720								
A3J01A18AJBGKX	Collector	1	247	2016-03-06T16:50:26-08:00	3	1	Stimuli/versionCstim.txt	Procedure/versionCproc.txt	Tetris		WINNER		WINNER	OFF	NPLI_Unrel_Recall	221	seqrec	No	User	RGN Test	ON	No	1460								
A3J01A18AJBGKX	Collector	1	248	2016-03-06T16:50:29-08:00	3	1	Stimuli/versionCstim.txt	Procedure/versionCproc.txt	Tetris		TENT		TENT	OFF	NPCI_Cat_Recall	288	seqrec	No	User	RGN Test	ON	Yes	1080								
A3J01A18AJBGKX	Collector	1	249	2016-03-06T16:50:32-08:00	3	1	Stimuli/versionCstim.txt	Procedure/versionCproc.txt	Tetris		PINT		PINT	OFF	LI_Unrel_Recall	157	seqrec	No	User	RGN Test	ON	Yes	790								
A3J01A18AJBGKX	Collector	1	250	2016-03-06T16:50:35-08:00	3	1	Stimuli/versionCstim.txt	Procedure/versionCproc.txt	Tetris		WINCH		WINCH	OFF	NPLI_Unrel_Recall	215	seqrec	No	User	RGN Test	ON	No	1160								
A3J01A18AJBGKX	Collector	1	251	2016-03-06T16:50:38-08:00	3	1	Stimuli/versionCstim.txt	Procedure/versionCproc.txt	Tetris		JUMPSUIT		JUMPSUIT	OFF	NPCI_AdHoc_Recall	284	seqrec	No	User	RGN Test	ON	No	740								
A3J01A18AJBGKX	Collector	1	252	2016-03-06T16:50:45-08:00	7	1	Stimuli/versionCstim.txt	Procedure/versionCproc.txt	Tetris		FILTER		FILTER	OFF	CI_Unrel_Recall	199	seqrec	No	User	RGN Test	ON	No	1120								
A3J01A18AJBGKX	Collector	1	253	2016-03-06T16:50:50-08:00	5	1	Stimuli/versionCstim.txt	Procedure/versionCproc.txt	Tetris		SKATE		SKATE	OFF	CI_AdHoc_Recall	189	seqrec	No	User	RGN Test	ON	No	1270								
A3J01A18AJBGKX	Collector	1	254	2016-03-06T16:50:54-08:00	4	1	Stimuli/versionCstim.txt	Procedure/versionCproc.txt	Tetris		BAY LEAVES		BAY LEAVES	OFF	LI_Cat_Recall	125	seqrec	No	User	RGN Test	ON	Yes	1430								
A3J01A18AJBGKX	Collector	1	255	2016-03-06T16:51:15-08:00	21	1	Stimuli/versionCstim.txt	Procedure/versionCproc.txt	Tetris		BRUSH		BRUSH	OFF	NPLI_AdHoc_Recall	225	seqrec	No	User	RGN Test	ON	No	6060								
A3J01A18AJBGKX	Collector	1	256	2016-03-06T16:51:21-08:00	6	1	Stimuli/versionCstim.txt	Procedure/versionCproc.txt	Tetris		ACROBAT		ACROBAT	OFF	CI_Unrel_Recall	200	seqrec	No	User	RGN Test	ON	Yes	2040								
A3J01A18AJBGKX	Collector	1	257	2016-03-06T16:51:25-08:00	4	1	Stimuli/versionCstim.txt	Procedure/versionCproc.txt	Tetris		ADMIRAL		ADMIRAL	OFF	CI_Unrel_Recall	192	seqrec	No	User	RGN Test	ON	No	1600								
A3J01A18AJBGKX	Collector	1	258	2016-03-06T16:51:29-08:00	4	1	Stimuli/versionCstim.txt	Procedure/versionCproc.txt	Tetris		TOOTHPICK		TOOTHPICK	OFF	CI_AdHoc_Recall	211	seqrec	No	User	RGN Test	ON	No	1600								
A3J01A18AJBGKX	Collector	1	259	2016-03-06T16:51:33-08:00	4	1	Stimuli/versionCstim.txt	Procedure/versionCproc.txt	Tetris		POLYESTER		POLYESTER	OFF	LI_Cat_Recall	167	seqrec	No	User	RGN Test	ON	Yes	1180								
A3J01A18AJBGKX	Collector	1	260	2016-03-06T16:51:37-08:00	4	1	Stimuli/versionCstim.txt	Procedure/versionCproc.txt	Tetris		LANDMARK		LANDMARK	OFF	NPLI_Unrel_Recall	262	seqrec	No	User	RGN Test	ON	No	1810								
A3J01A18AJBGKX	Collector	1	261	2016-03-06T16:51:42-08:00	5	1	Stimuli/versionCstim.txt	Procedure/versionCproc.txt	Tetris		HOSE		HOSE	OFF	NPCI_Cat_Recall	296	seqrec	No	User	RGN Test	ON	No	1720								
A3J01A18AJBGKX	Collector	1	262	2016-03-06T16:51:46-08:00	4	1	Stimuli/versionCstim.txt	Procedure/versionCproc.txt	Tetris		ROSEMARY		ROSEMARY	OFF	LI_Cat_Recall	127	seqrec	No	User	RGN Test	ON	Yes	1400								
A3J01A18AJBGKX	Collector	1	263	2016-03-06T16:51:52-08:00	6	1	Stimuli/versionCstim.txt	Procedure/versionCproc.txt	Tetris		LEATHER		LEATHER	OFF	CI_Cat_Recall	205	seqrec	No	User	RGN Test	ON	No	1690								
A3J01A18AJBGKX	Collector	1	264	2016-03-06T16:51:56-08:00	4	1	Stimuli/versionCstim.txt	Procedure/versionCproc.txt	Tetris		TORNADO		TORNADO	OFF	LI_AdHoc_Recall	138	seqrec	No	User	RGN Test	ON	Yes	1540								
A3J01A18AJBGKX	Collector	1	265	2016-03-06T16:52:00-08:00	4	1	Stimuli/versionCstim.txt	Procedure/versionCproc.txt	Tetris		MEDICINE		MEDICINE	OFF	NPLI_AdHoc_Recall	224	seqrec	No	User	RGN Test	ON	No	1310								
A3J01A18AJBGKX	Collector	1	266	2016-03-06T16:52:03-08:00	3	1	Stimuli/versionCstim.txt	Procedure/versionCproc.txt	Tetris		BILLBOARD		BILLBOARD	OFF	NPCI_Unrel_Recall	301	seqrec	No	User	RGN Test	ON	No	1080								
A3J01A18AJBGKX	Collector	1	267	2016-03-06T16:52:06-08:00	3	1	Stimuli/versionCstim.txt	Procedure/versionCproc.txt	Tetris		ARCH		ARCH	OFF	NPCI_Unrel_Recall	299	seqrec	No	User	RGN Test	ON	No	1020								
A3J01A18AJBGKX	Collector	1	268	2016-03-06T16:52:10-08:00	4	1	Stimuli/versionCstim.txt	Procedure/versionCproc.txt	Tetris		PLANET		PLANET	OFF	CI_AdHoc_Recall	188	seqrec	No	User	RGN Test	ON	No	1000								
A3J01A18AJBGKX	Collector	1	269	2016-03-06T16:52:13-08:00	3	1	Stimuli/versionCstim.txt	Procedure/versionCproc.txt	Tetris		LASER		LASER	OFF	NPLI_Unrel_Recall	271	seqrec	No	User	RGN Test	ON	Yes	1310								
A3J01A18AJBGKX	Collector	1	270	2016-03-06T16:52:17-08:00	4	1	Stimuli/versionCstim.txt	Procedure/versionCproc.txt	Tetris		PLUNGER		PLUNGER	OFF	NPLI_AdHoc_Recall	228	seqrec	No	User	RGN Test	ON	No	1510								
A3J01A18AJBGKX	Collector	1	271	2016-03-06T16:52:21-08:00	4	1	Stimuli/versionCstim.txt	Procedure/versionCproc.txt	Tetris		CANYON		CANYON	OFF	NPLI_Unrel_Recall	217	seqrec	No	User	RGN Test	ON	Yes	1500								
A3J01A18AJBGKX	Collector	1	272	2016-03-06T16:52:26-08:00	5	1	Stimuli/versionCstim.txt	Procedure/versionCproc.txt	Tetris		WHIRLPOOL		WHIRLPOOL	OFF	CI_Unrel_Recall	198	seqrec	No	User	RGN Test	ON	Yes	2610								
A3J01A18AJBGKX	Collector	1	273	2016-03-06T16:52:29-08:00	3	1	Stimuli/versionCstim.txt	Procedure/versionCproc.txt	Tetris		SPIRAL		SPIRAL	OFF	LI_AdHoc_Recall	139	seqrec	No	User	RGN Test	ON	Yes	720								
A3J01A18AJBGKX	Collector	1	274	2016-03-06T16:52:32-08:00	3	1	Stimuli/versionCstim.txt	Procedure/versionCproc.txt	Tetris		ROLLING PIN		ROLLING PIN	OFF	CI_AdHoc_Recall	207	seqrec	No	User	RGN Test	ON	No	1270								
A3J01A18AJBGKX	Collector	1	275	2016-03-06T16:52:36-08:00	4	1	Stimuli/versionCstim.txt	Procedure/versionCproc.txt	Tetris		HANDCUFFS		HANDCUFFS	OFF	NPCI_AdHoc_Recall	282	seqrec	No	User	RGN Test	ON	No	940								
A3J01A18AJBGKX	Collector	1	276	2016-03-06T16:52:39-08:00	3	1	Stimuli/versionCstim.txt	Procedure/versionCproc.txt	Tetris		DETOUR		DETOUR	OFF	NPLI_Unrel_Recall	212	seqrec	No	User	RGN Test	ON	No	1380								
A3J01A18AJBGKX	Collector	1	277	2016-03-06T16:52:42-08:00	3	1	Stimuli/versionCstim.txt	Procedure/versionCproc.txt	Tetris		TRAILER		TRAILER	OFF	NPLI_Cat_Recall	242	seqrec	No	User	RGN Test	ON	No	1030								
A3J01A18AJBGKX	Collector	1	278	2016-03-06T16:52:45-08:00	3	1	Stimuli/versionCstim.txt	Procedure/versionCproc.txt	Tetris		SATELLITE		SATELLITE	OFF	LI_AdHoc_Recall	132	seqrec	No	User	RGN Test	ON	Yes	1090								
A3J01A18AJBGKX	Collector	1	279	2016-03-06T16:52:49-08:00	4	1	Stimuli/versionCstim.txt	Procedure/versionCproc.txt	Tetris		PLANTER		PLANTER	OFF	NPLI_Cat_Recall	257	seqrec	No	User	RGN Test	ON	No	1420								
A3J01A18AJBGKX	Collector	1	280	2016-03-06T16:52:52-08:00	3	1	Stimuli/versionCstim.txt	Procedure/versionCproc.txt	Tetris		INJURY		INJURY	OFF	NPCI_Unrel_Recall	275	seqrec	No	User	RGN Test	ON	No	160								
A3J01A18AJBGKX	Collector	1	281	2016-03-06T16:52:55-08:00	3	1	Stimuli/versionCstim.txt	Procedure/versionCproc.txt	Tetris		VAPOR		VAPOR	OFF	LI_Unrel_Recall	158	seqrec	No	User	RGN Test	ON	Yes	1200								
A3J01A18AJBGKX	Collector	1	282	2016-03-06T16:52:59-08:00	4	1	Stimuli/versionCstim.txt	Procedure/versionCproc.txt	Tetris		TILE		TILE	OFF	NPLI_AdHoc_Recall	223	seqrec	No	User	RGN Test	ON	No	1080								
A3J01A18AJBGKX	Collector	1	283	2016-03-06T16:53:01-08:00	2	1	Stimuli/versionCstim.txt	Procedure/versionCproc.txt	Tetris		GUARD		GUARD	OFF	NPLI_AdHoc_Recall	235	seqrec	No	User	RGN Test	ON	No	810								
A3J01A18AJBGKX	Collector	1	284	2016-03-06T16:53:05-08:00	4	1	Stimuli/versionCstim.txt	Procedure/versionCproc.txt	Tetris		BUCKET		BUCKET	OFF	NPLI_Cat_Recall	255	seqrec	No	User	RGN Test	ON	Yes	1210								
A3J01A18AJBGKX	Collector	1	285	2016-03-06T16:53:08-08:00	3	1	Stimuli/versionCstim.txt	Procedure/versionCproc.txt	Tetris		PAPRIKA		PAPRIKA	OFF	CI_Cat_Recall	184	seqrec	No	User	RGN Test	ON	Yes	820								
A3J01A18AJBGKX	Collector	1	286	2016-03-06T16:53:13-08:00	5	1	Stimuli/versionCstim.txt	Procedure/versionCproc.txt	Tetris		DEBT		DEBT	OFF	LI_Unrel_Recall	142	seqrec	No	User	RGN Test	ON	Yes	2680								
A3J01A18AJBGKX	Collector	1	287	2016-03-06T16:53:18-08:00	5	1	Stimuli/versionCstim.txt	Procedure/versionCproc.txt	Tetris		CABIN		CABIN	OFF	NPCI_Cat_Recall	291	seqrec	No	User	RGN Test	ON	Yes	3170								
A3J01A18AJBGKX	Collector	1	288	2016-03-06T16:53:24-08:00	6	1	Stimuli/versionCstim.txt	Procedure/versionCproc.txt	Tetris		TERRY		TERRY	OFF	LI_Cat_Recall	166	seqrec	No	User	RGN Test	ON	No	3680								
A3J01A18AJBGKX	Collector	1	289	2016-03-06T16:53:27-08:00	3	1	Stimuli/versionCstim.txt	Procedure/versionCproc.txt	Tetris		COLOGNE		COLOGNE	OFF	NPCI_AdHoc_Recall	280	seqrec	No	User	RGN Test	ON	Yes	1300								
A3J01A18AJBGKX	Collector	1	290	2016-03-06T16:53:32-08:00	5	1	Stimuli/versionCstim.txt	Procedure/versionCproc.txt	Tetris		TABLE		TABLE	OFF	LI_AdHoc_Recall	172	seqrec	No	User	RGN Test	ON	Yes	750								
A3J01A18AJBGKX	Collector	1	291	2016-03-06T16:53:35-08:00	3	1	Stimuli/versionCstim.txt	Procedure/versionCproc.txt	Tetris		JAR		JAR	OFF	NPLI_Unrel_Recall	216	seqrec	No	User	RGN Test	ON	No	1080								
A3J01A18AJBGKX	Collector	1	292	2016-03-06T16:53:38-08:00	3	1	Stimuli/versionCstim.txt	Procedure/versionCproc.txt	Tetris		OFFICER		OFFICER	OFF	NPLI_AdHoc_Recall	239	seqrec	No	User	RGN Test	ON	No	920								
A3J01A18AJBGKX	Collector	1	293	2016-03-06T16:53:41-08:00	3	1	Stimuli/versionCstim.txt	Procedure/versionCproc.txt	Tetris		KEROSENE		KEROSENE	OFF	LI_Unrel_Recall	156	seqrec	No	User	RGN Test	ON	Yes	840								
A3J01A18AJBGKX	Collector	1	294	2016-03-06T16:53:45-08:00	4	1	Stimuli/versionCstim.txt	Procedure/versionCproc.txt	Tetris		BARREL		BARREL	OFF	CI_AdHoc_Recall	209	seqrec	No	User	RGN Test	ON	No	2180								
A3J01A18AJBGKX	Collector	1	295	2016-03-06T16:53:48-08:00	3	1	Stimuli/versionCstim.txt	Procedure/versionCproc.txt	Tetris		CREST		CREST	OFF	LI_Unrel_Recall	159	seqrec	No	User	RGN Test	ON	No	930								
A3J01A18AJBGKX	Collector	1	296	2016-03-06T16:53:52-08:00	4	1	Stimuli/versionCstim.txt	Procedure/versionCproc.txt	Tetris		JERSEY		JERSEY	OFF	LI_Cat_Recall	168	seqrec	No	User	RGN Test	ON	Yes	1850								
A3J01A18AJBGKX	Collector	1	297	2016-03-06T16:53:55-08:00	3	1	Stimuli/versionCstim.txt	Procedure/versionCproc.txt	Tetris		BUNKBED		BUNKBED	OFF	NPLI_AdHoc_Recall	234	seqrec	No	User	RGN Test	ON	No	1100								
A3J01A18AJBGKX	Collector	1	298	2016-03-06T16:53:59-08:00	4	1	Stimuli/versionCstim.txt	Procedure/versionCproc.txt	Tetris		DREIDEL		DREIDEL	OFF	LI_AdHoc_Recall	133	seqrec	No	User	RGN Test	ON	Yes	1560								
A3J01A18AJBGKX	Collector	1	299	2016-03-06T16:54:02-08:00	3	1	Stimuli/versionCstim.txt	Procedure/versionCproc.txt	Tetris		ROOM		ROOM	OFF	NPLI_Cat_Recall	248	seqrec	No	User	RGN Test	ON	No	1070								
A3J01A18AJBGKX	Collector	1	300	2016-03-06T16:54:08-08:00	6	1	Stimuli/versionCstim.txt	Procedure/versionCproc.txt	Tetris		PICK		PICK	OFF	NPLI_Cat_Recall	252	seqrec	No	User	RGN Test	ON	Yes	3480								
A3J01A18AJBGKX	Collector	1	301	2016-03-06T16:54:11-08:00	3	1	Stimuli/versionCstim.txt	Procedure/versionCproc.txt	Tetris		FINGERPRINTS		FINGERPRINTS	OFF	NPLI_AdHoc_Recall	233	seqrec	No	User	RGN Test	ON	No	1100								
A3J01A18AJBGKX	Collector	1	302	2016-03-06T16:54:13-08:00	2	1	Stimuli/versionCstim.txt	Procedure/versionCproc.txt	Tetris		GYROSCOPE		GYROSCOPE	OFF	LI_AdHoc_Recall	136	seqrec	No	User	RGN Test	ON	Yes	1150								
A3J01A18AJBGKX	Collector	1	303	2016-03-06T16:54:15-08:00	2	1	Stimuli/versionCstim.txt	Procedure/versionCproc.txt	Tetris		COTTAGE		COTTAGE	OFF	NPLI_Cat_Recall	244	seqrec	No	User	RGN Test	ON	Yes	930								
A3J01A18AJBGKX	Collector	1	304	2016-03-06T16:54:21-08:00	6	1	Stimuli/versionCstim.txt	Procedure/versionCproc.txt	Tetris		KNIGHT		KNIGHT	OFF	CI_Unrel_Recall	197	seqrec	No	User	RGN Test	ON	Yes	2450								
A3J01A18AJBGKX	Collector	1	305	2016-03-06T16:54:25-08:00	4	1	Stimuli/versionCstim.txt	Procedure/versionCproc.txt	Tetris		HOUSEBOAT		HOUSEBOAT	OFF	NPLI_Cat_Recall	247	seqrec	No	User	RGN Test	ON	No	1410								
A3J01A18AJBGKX	Collector	1	306	2016-03-06T16:54:28-08:00	3	1	Stimuli/versionCstim.txt	Procedure/versionCproc.txt	Tetris		TEPEE		TEPEE	OFF	NPLI_Cat_Recall	246	seqrec	No	User	RGN Test	ON	Yes	1740								
A3J01A18AJBGKX	Collector	1	307	2016-03-06T16:54:33-08:00	5	1	Stimuli/versionCstim.txt	Procedure/versionCproc.txt	Tetris		CHAIN		CHAIN	OFF	NPLI_AdHoc_Recall	237	seqrec	No	User	RGN Test	ON	No	1760								
A3J01A18AJBGKX	Collector	1	308	2016-03-06T16:54:35-08:00	2	1	Stimuli/versionCstim.txt	Procedure/versionCproc.txt	Tetris		DENIUM		DENIUM	OFF	LI_Cat_Recall	164	seqrec	No	User	RGN Test	ON	Yes	1360								
A3J01A18AJBGKX	Collector	1	309	2016-03-06T16:54:39-08:00	4	1	Stimuli/versionCstim.txt	Procedure/versionCproc.txt	Tetris		WHEELBARROW		WHEELBARROW	OFF	NPLI_Cat_Recall	260	seqrec	No	User	RGN Test	ON	No	1230								
A3J01A18AJBGKX	Collector	1	310	2016-03-06T16:54:42-08:00	3	1	Stimuli/versionCstim.txt	Procedure/versionCproc.txt	Tetris		FLANNEL		FLANNEL	OFF	LI_Cat_Recall	165	seqrec	No	User	RGN Test	ON	Yes	1200								
A3J01A18AJBGKX	Collector	1	311	2016-03-06T16:54:45-08:00	3	1	Stimuli/versionCstim.txt	Procedure/versionCproc.txt	Tetris		WIZARD		WIZARD	OFF	NPLI_Unrel_Recall	264	seqrec	No	User	RGN Test	ON	No	1240								
A3J01A18AJBGKX	Collector	1	312	2016-03-06T16:54:51-08:00	6	1	Stimuli/versionCstim.txt	Procedure/versionCproc.txt	Tetris		STAIRS		STAIRS	OFF	LI_AdHoc_Recall	179	seqrec	No	User	RGN Test	ON	No	2920								
A3J01A18AJBGKX	Collector	1	313	2016-03-06T16:54:55-08:00	4	1	Stimuli/versionCstim.txt	Procedure/versionCproc.txt	Tetris		LYCRA		LYCRA	OFF	LI_Cat_Recall	171	seqrec	No	User	RGN Test	ON	Yes	600								
A3J01A18AJBGKX	Collector	1	314	2016-03-06T16:54:58-08:00	3	1	Stimuli/versionCstim.txt	Procedure/versionCproc.txt	Tetris		TOWER		TOWER	OFF	NPLI_AdHoc_Recall	236	seqrec	No	User	RGN Test	ON	No	2100								
A3J01A18AJBGKX	Collector	1	315	2016-03-06T16:55:01-08:00	3	1	Stimuli/versionCstim.txt	Procedure/versionCproc.txt	Tetris		CELL		CELL	OFF	NPLI_AdHoc_Recall	232	seqrec	No	User	RGN Test	ON	No	230								
A3J01A18AJBGKX	Collector	1	316	2016-03-06T16:55:05-08:00	4	1	Stimuli/versionCstim.txt	Procedure/versionCproc.txt	Tetris		DESERT		DESERT	OFF	LI_Unrel_Recall	144	seqrec	No	User	RGN Test	ON	Yes	1330								
A3J01A18AJBGKX	Collector	1	317	2016-03-06T16:55:08-08:00	3	1	Stimuli/versionCstim.txt	Procedure/versionCproc.txt	Tetris		DOOR		DOOR	OFF	LI_AdHoc_Recall	173	seqrec	No	User	RGN Test	ON	Yes	760								
A3J01A18AJBGKX	Collector	1	318	2016-03-06T16:55:11-08:00	3	1	Stimuli/versionCstim.txt	Procedure/versionCproc.txt	Tetris		SHOVEL		SHOVEL	OFF	NPCI_Cat_Recall	292	seqrec	No	User	RGN Test	ON	No	1260								
A3J01A18AJBGKX	Collector	1	319	2016-03-06T16:55:14-08:00	3	1	Stimuli/versionCstim.txt	Procedure/versionCproc.txt	Tetris		SHACK		SHACK	OFF	NPLI_Cat_Recall	243	seqrec	No	User	RGN Test	ON	No	1120								
A3J01A18AJBGKX	Collector	1	320	2016-03-06T16:55:18-08:00	4	1	Stimuli/versionCstim.txt	Procedure/versionCproc.txt	Tetris		GEAR		GEAR	OFF	LI_AdHoc_Recall	135	seqrec	No	User	RGN Test	ON	Yes	1550								
A3J01A18AJBGKX	Collector	1	321	2016-03-06T16:55:21-08:00	3	1	Stimuli/versionCstim.txt	Procedure/versionCproc.txt	Tetris		n/a	n/a	n/a	n/a	n/a	0	Instruct	N/A	User	Click the button below to continue.	OFF		1350								
A3J01A18AJBGKX	Collector	1	322	2016-03-06T16:55:38-08:00	17	1	Stimuli/versionCstim.txt	Procedure/versionCproc.txt	Tetris		n/a	n/a	n/a	n/a	n/a	0	Instruct	N/A	User	You again will be presented with 6 lists of words, each containing 20 words, but now you will be presented with the list for a second time following each list. After each list is presented, the words will be presented to you again, but in a different order. Click the button below to begin the first list.	OFF		12870								
A3J01A18AJBGKX	Collector	1	323	2016-03-06T16:55:43-08:00	5	1	Stimuli/versionCstim.txt	Procedure/versionCproc.txt	Tetris		BADMINTON		BADMINTON	OFF	Cat_Restudy_L1	307	Study	No	3	Cat_Restudy_L1	ON		3000								
A3J01A18AJBGKX	Collector	1	324	2016-03-06T16:55:47-08:00	4	1	Stimuli/versionCstim.txt	Procedure/versionCproc.txt	Tetris		SOFTBALL		SOFTBALL	OFF	Cat_Restudy_L1	315	Study	No	3	Cat_Restudy_L1	ON		3000								
A3J01A18AJBGKX	Collector	1	325	2016-03-06T16:55:52-08:00	5	1	Stimuli/versionCstim.txt	Procedure/versionCproc.txt	Tetris		BOWLING		BOWLING	OFF	Cat_Restudy_L1	308	Study	No	3	Cat_Restudy_L1	ON		3000								
A3J01A18AJBGKX	Collector	1	326	2016-03-06T16:55:57-08:00	5	1	Stimuli/versionCstim.txt	Procedure/versionCproc.txt	Tetris		LACROSSE		LACROSSE	OFF	Cat_Restudy_L1	306	Study	No	3	Cat_Restudy_L1	ON		3000								
A3J01A18AJBGKX	Collector	1	327	2016-03-06T16:56:02-08:00	5	1	Stimuli/versionCstim.txt	Procedure/versionCproc.txt	Tetris		VOLLEYBALL		VOLLEYBALL	OFF	Cat_Restudy_L1	310	Study	No	3	Cat_Restudy_L1	ON		3000								
A3J01A18AJBGKX	Collector	1	328	2016-03-06T16:56:07-08:00	5	1	Stimuli/versionCstim.txt	Procedure/versionCproc.txt	Tetris		SKIING		SKIING	OFF	Cat_Restudy_L1	312	Study	No	3	Cat_Restudy_L1	ON		3000								
A3J01A18AJBGKX	Collector	1	329	2016-03-06T16:56:12-08:00	5	1	Stimuli/versionCstim.txt	Procedure/versionCproc.txt	Tetris		GOLF		GOLF	OFF	Cat_Restudy_L1	303	Study	No	3	Cat_Restudy_L1	ON		3000								
A3J01A18AJBGKX	Collector	1	330	2016-03-06T16:56:17-08:00	5	1	Stimuli/versionCstim.txt	Procedure/versionCproc.txt	Tetris		POLO		POLO	OFF	Cat_Restudy_L1	317	Study	No	3	Cat_Restudy_L1	ON		3000								
A3J01A18AJBGKX	Collector	1	331	2016-03-06T16:56:22-08:00	5	1	Stimuli/versionCstim.txt	Procedure/versionCproc.txt	Tetris		FENCING		FENCING	OFF	Cat_Restudy_L1	313	Study	No	3	Cat_Restudy_L1	ON		3000								
A3J01A18AJBGKX	Collector	1	332	2016-03-06T16:56:26-08:00	4	1	Stimuli/versionCstim.txt	Procedure/versionCproc.txt	Tetris		PING-PONG		PING-PONG	OFF	Cat_Restudy_L1	314	Study	No	3	Cat_Restudy_L1	ON		3000								
A3J01A18AJBGKX	Collector	1	333	2016-03-06T16:56:31-08:00	5	1	Stimuli/versionCstim.txt	Procedure/versionCproc.txt	Tetris		FISHING		FISHING	OFF	Cat_Restudy_L1	316	Study	No	3	Cat_Restudy_L1	ON		3000								
A3J01A18AJBGKX	Collector	1	334	2016-03-06T16:56:36-08:00	5	1	Stimuli/versionCstim.txt	Procedure/versionCproc.txt	Tetris		RUGBY		RUGBY	OFF	Cat_Restudy_L1	319	Study	No	3	Cat_Restudy_L1	ON		3000								
A3J01A18AJBGKX	Collector	1	335	2016-03-06T16:56:41-08:00	5	1	Stimuli/versionCstim.txt	Procedure/versionCproc.txt	Tetris		TRACK		TRACK	OFF	Cat_Restudy_L1	305	Study	No	3	Cat_Restudy_L1	ON		3000								
A3J01A18AJBGKX	Collector	1	336	2016-03-06T16:56:46-08:00	5	1	Stimuli/versionCstim.txt	Procedure/versionCproc.txt	Tetris		BOXING		BOXING	OFF	Cat_Restudy_L1	318	Study	No	3	Cat_Restudy_L1	ON		3000								
A3J01A18AJBGKX	Collector	1	337	2016-03-06T16:56:51-08:00	5	1	Stimuli/versionCstim.txt	Procedure/versionCproc.txt	Tetris		ARCHERY		ARCHERY	OFF	Cat_Restudy_L1	311	Study	No	3	Cat_Restudy_L1	ON		3000								
A3J01A18AJBGKX	Collector	1	338	2016-03-06T16:56:56-08:00	5	1	Stimuli/versionCstim.txt	Procedure/versionCproc.txt	Tetris		RACING		RACING	OFF	Cat_Restudy_L1	321	Study	No	3	Cat_Restudy_L1	ON		3000								
A3J01A18AJBGKX	Collector	1	339	2016-03-06T16:57:01-08:00	5	1	Stimuli/versionCstim.txt	Procedure/versionCproc.txt	Tetris		SOCCER		SOCCER	OFF	Cat_Restudy_L1	302	Study	No	3	Cat_Restudy_L1	ON		3000								
A3J01A18AJBGKX	Collector	1	340	2016-03-06T16:57:06-08:00	5	1	Stimuli/versionCstim.txt	Procedure/versionCproc.txt	Tetris		WRESTLING		WRESTLING	OFF	Cat_Restudy_L1	309	Study	No	3	Cat_Restudy_L1	ON		3000								
A3J01A18AJBGKX	Collector	1	341	2016-03-06T16:57:11-08:00	5	1	Stimuli/versionCstim.txt	Procedure/versionCproc.txt	Tetris		HOCKEY		HOCKEY	OFF	Cat_Restudy_L1	304	Study	No	3	Cat_Restudy_L1	ON		3000								
A3J01A18AJBGKX	Collector	1	342	2016-03-06T16:57:16-08:00	5	1	Stimuli/versionCstim.txt	Procedure/versionCproc.txt	Tetris		GYMNASTICS		GYMNASTICS	OFF	Cat_Restudy_L1	320	Study	No	3	Cat_Restudy_L1	ON		3000								
A3J01A18AJBGKX	Collector	1	343	2016-03-06T16:57:24-08:00	8	1	Stimuli/versionCstim.txt	Procedure/versionCproc.txt	Tetris		n/a	n/a	n/a	n/a	n/a	0	Instruct	N/A	User	Restudy Instructions: You will now view this list again, but in a different order. Click the button below to begin.	OFF		5240								
A3J01A18AJBGKX	Collector	1	344	2016-03-06T16:57:29-08:00	5	1	Stimuli/versionCstim.txt	Procedure/versionCproc.txt	Tetris		FISHING		FISHING	OFF	Cat_Restudy_L1	336	Study	No	3	Cat_Restudy_L1	ON		3000								
A3J01A18AJBGKX	Collector	1	345	2016-03-06T16:57:34-08:00	5	1	Stimuli/versionCstim.txt	Procedure/versionCproc.txt	Tetris		SOCCER		SOCCER	OFF	Cat_Restudy_L1	322	Study	No	3	Cat_Restudy_L1	ON		3000								
A3J01A18AJBGKX	Collector	1	346	2016-03-06T16:57:39-08:00	5	1	Stimuli/versionCstim.txt	Procedure/versionCproc.txt	Tetris		RUGBY		RUGBY	OFF	Cat_Restudy_L1	339	Study	No	3	Cat_Restudy_L1	ON		3000								
A3J01A18AJBGKX	Collector	1	347	2016-03-06T16:57:44-08:00	5	1	Stimuli/versionCstim.txt	Procedure/versionCproc.txt	Tetris		ARCHERY		ARCHERY	OFF	Cat_Restudy_L1	331	Study	No	3	Cat_Restudy_L1	ON		3000								
A3J01A18AJBGKX	Collector	1	348	2016-03-06T16:57:49-08:00	5	1	Stimuli/versionCstim.txt	Procedure/versionCproc.txt	Tetris		BOWLING		BOWLING	OFF	Cat_Restudy_L1	328	Study	No	3	Cat_Restudy_L1	ON		3000								
A3J01A18AJBGKX	Collector	1	349	2016-03-06T16:57:54-08:00	5	1	Stimuli/versionCstim.txt	Procedure/versionCproc.txt	Tetris		SKIING		SKIING	OFF	Cat_Restudy_L1	332	Study	No	3	Cat_Restudy_L1	ON		3000								
A3J01A18AJBGKX	Collector	1	350	2016-03-06T16:58:00-08:00	6	1	Stimuli/versionCstim.txt	Procedure/versionCproc.txt	Tetris		HOCKEY		HOCKEY	OFF	Cat_Restudy_L1	324	Study	No	3	Cat_Restudy_L1	ON		3000								
A3J01A18AJBGKX	Collector	1	351	2016-03-06T16:58:08-08:00	8	1	Stimuli/versionCstim.txt	Procedure/versionCproc.txt	Tetris		TRACK		TRACK	OFF	Cat_Restudy_L1	325	Study	No	3	Cat_Restudy_L1	ON		3000								
A3J01A18AJBGKX	Collector	1	352	2016-03-06T16:58:13-08:00	5	1	Stimuli/versionCstim.txt	Procedure/versionCproc.txt	Tetris		LACROSSE		LACROSSE	OFF	Cat_Restudy_L1	326	Study	No	3	Cat_Restudy_L1	ON		3000								
A3J01A18AJBGKX	Collector	1	353	2016-03-06T16:58:18-08:00	5	1	Stimuli/versionCstim.txt	Procedure/versionCproc.txt	Tetris		RACING		RACING	OFF	Cat_Restudy_L1	341	Study	No	3	Cat_Restudy_L1	ON		3000								
A3J01A18AJBGKX	Collector	1	354	2016-03-06T16:58:23-08:00	5	1	Stimuli/versionCstim.txt	Procedure/versionCproc.txt	Tetris		BADMINTON		BADMINTON	OFF	Cat_Restudy_L1	327	Study	No	3	Cat_Restudy_L1	ON		3000								
A3J01A18AJBGKX	Collector	1	355	2016-03-06T16:58:28-08:00	5	1	Stimuli/versionCstim.txt	Procedure/versionCproc.txt	Tetris		FENCING		FENCING	OFF	Cat_Restudy_L1	333	Study	No	3	Cat_Restudy_L1	ON		3000								
A3J01A18AJBGKX	Collector	1	356	2016-03-06T16:58:33-08:00	5	1	Stimuli/versionCstim.txt	Procedure/versionCproc.txt	Tetris		PING-PONG		PING-PONG	OFF	Cat_Restudy_L1	334	Study	No	3	Cat_Restudy_L1	ON		3000								
A3J01A18AJBGKX	Collector	1	357	2016-03-06T16:58:38-08:00	5	1	Stimuli/versionCstim.txt	Procedure/versionCproc.txt	Tetris		GOLF		GOLF	OFF	Cat_Restudy_L1	323	Study	No	3	Cat_Restudy_L1	ON		3000								
A3J01A18AJBGKX	Collector	1	358	2016-03-06T16:58:43-08:00	5	1	Stimuli/versionCstim.txt	Procedure/versionCproc.txt	Tetris		GYMNASTICS		GYMNASTICS	OFF	Cat_Restudy_L1	340	Study	No	3	Cat_Restudy_L1	ON		3000								
A3J01A18AJBGKX	Collector	1	359	2016-03-06T16:58:47-08:00	4	1	Stimuli/versionCstim.txt	Procedure/versionCproc.txt	Tetris		BOXING		BOXING	OFF	Cat_Restudy_L1	338	Study	No	3	Cat_Restudy_L1	ON		3000								
A3J01A18AJBGKX	Collector	1	360	2016-03-06T16:58:52-08:00	5	1	Stimuli/versionCstim.txt	Procedure/versionCproc.txt	Tetris		SOFTBALL		SOFTBALL	OFF	Cat_Restudy_L1	335	Study	No	3	Cat_Restudy_L1	ON		3000								
A3J01A18AJBGKX	Collector	1	361	2016-03-06T16:58:57-08:00	5	1	Stimuli/versionCstim.txt	Procedure/versionCproc.txt	Tetris		WRESTLING		WRESTLING	OFF	Cat_Restudy_L1	329	Study	No	3	Cat_Restudy_L1	ON		3000								
A3J01A18AJBGKX	Collector	1	362	2016-03-06T16:59:01-08:00	4	1	Stimuli/versionCstim.txt	Procedure/versionCproc.txt	Tetris		VOLLEYBALL		VOLLEYBALL	OFF	Cat_Restudy_L1	330	Study	No	3	Cat_Restudy_L1	ON		3000								
A3J01A18AJBGKX	Collector	1	363	2016-03-06T16:59:06-08:00	5	1	Stimuli/versionCstim.txt	Procedure/versionCproc.txt	Tetris		POLO		POLO	OFF	Cat_Restudy_L1	337	Study	No	3	Cat_Restudy_L1	ON		3000								
A3J01A18AJBGKX	Collector	1	364	2016-03-06T16:59:11-08:00	5	1	Stimuli/versionCstim.txt	Procedure/versionCproc.txt	Tetris		n/a	n/a	n/a	n/a	n/a	0	Instruct	N/A	User	Click the button below for a new list.	OFF		2850								
A3J01A18AJBGKX	Collector	1	365	2016-03-06T16:59:16-08:00	5	1	Stimuli/versionCstim.txt	Procedure/versionCproc.txt	Tetris		FORK		FORK	OFF	AdHoc_Restudy_L2	353	Study	No	3	AdHoc_Restudy_L2	ON		3000								
A3J01A18AJBGKX	Collector	1	366	2016-03-06T16:59:21-08:00	5	1	Stimuli/versionCstim.txt	Procedure/versionCproc.txt	Tetris		CAN OPENER		CAN OPENER	OFF	AdHoc_Restudy_L2	358	Study	No	3	AdHoc_Restudy_L2	ON		3000								
A3J01A18AJBGKX	Collector	1	367	2016-03-06T16:59:26-08:00	5	1	Stimuli/versionCstim.txt	Procedure/versionCproc.txt	Tetris		OVEN MITTS		OVEN MITTS	OFF	AdHoc_Restudy_L2	348	Study	No	3	AdHoc_Restudy_L2	ON		3000								
A3J01A18AJBGKX	Collector	1	368	2016-03-06T16:59:31-08:00	5	1	Stimuli/versionCstim.txt	Procedure/versionCproc.txt	Tetris		GLASS		GLASS	OFF	AdHoc_Restudy_L2	351	Study	No	3	AdHoc_Restudy_L2	ON		3000								
A3J01A18AJBGKX	Collector	1	369	2016-03-06T16:59:35-08:00	4	1	Stimuli/versionCstim.txt	Procedure/versionCproc.txt	Tetris		KNIFE		KNIFE	OFF	AdHoc_Restudy_L2	343	Study	No	3	AdHoc_Restudy_L2	ON		3000								
A3J01A18AJBGKX	Collector	1	370	2016-03-06T16:59:41-08:00	6	1	Stimuli/versionCstim.txt	Procedure/versionCproc.txt	Tetris		BOWL		BOWL	OFF	AdHoc_Restudy_L2	347	Study	No	3	AdHoc_Restudy_L2	ON		3000								
A3J01A18AJBGKX	Collector	1	371	2016-03-06T16:59:46-08:00	5	1	Stimuli/versionCstim.txt	Procedure/versionCproc.txt	Tetris		SAUCE PAN		SAUCE PAN	OFF	AdHoc_Restudy_L2	354	Study	No	3	AdHoc_Restudy_L2	ON		3000								
A3J01A18AJBGKX	Collector	1	372	2016-03-06T16:59:50-08:00	4	1	Stimuli/versionCstim.txt	Procedure/versionCproc.txt	Tetris		STRAINER		STRAINER	OFF	AdHoc_Restudy_L2	356	Study	No	3	AdHoc_Restudy_L2	ON		3000								
A3J01A18AJBGKX	Collector	1	373	2016-03-06T16:59:55-08:00	5	1	Stimuli/versionCstim.txt	Procedure/versionCproc.txt	Tetris		PLATE		PLATE	OFF	AdHoc_Restudy_L2	346	Study	No	3	AdHoc_Restudy_L2	ON		3000								
A3J01A18AJBGKX	Collector	1	374	2016-03-06T17:00:00-08:00	5	1	Stimuli/versionCstim.txt	Procedure/versionCproc.txt	Tetris		STOVE		STOVE	OFF	AdHoc_Restudy_L2	361	Study	No	3	AdHoc_Restudy_L2	ON		3000								
A3J01A18AJBGKX	Collector	1	375	2016-03-06T17:00:06-08:00	6	1	Stimuli/versionCstim.txt	Procedure/versionCproc.txt	Tetris		MUG		MUG	OFF	AdHoc_Restudy_L2	350	Study	No	3	AdHoc_Restudy_L2	ON		3000								
A3J01A18AJBGKX	Collector	1	376	2016-03-06T17:00:10-08:00	4	1	Stimuli/versionCstim.txt	Procedure/versionCproc.txt	Tetris		PLATTER		PLATTER	OFF	AdHoc_Restudy_L2	345	Study	No	3	AdHoc_Restudy_L2	ON		3000								
A3J01A18AJBGKX	Collector	1	377	2016-03-06T17:00:15-08:00	5	1	Stimuli/versionCstim.txt	Procedure/versionCproc.txt	Tetris		POTS		POTS	OFF	AdHoc_Restudy_L2	359	Study	No	3	AdHoc_Restudy_L2	ON		3000								
A3J01A18AJBGKX	Collector	1	378	2016-03-06T17:00:20-08:00	5	1	Stimuli/versionCstim.txt	Procedure/versionCproc.txt	Tetris		SPICE RACK		SPICE RACK	OFF	AdHoc_Restudy_L2	360	Study	No	3	AdHoc_Restudy_L2	ON		3000								
A3J01A18AJBGKX	Collector	1	379	2016-03-06T17:00:24-08:00	4	1	Stimuli/versionCstim.txt	Procedure/versionCproc.txt	Tetris		SPOON		SPOON	OFF	AdHoc_Restudy_L2	352	Study	No	3	AdHoc_Restudy_L2	ON		3000								
A3J01A18AJBGKX	Collector	1	380	2016-03-06T17:00:29-08:00	5	1	Stimuli/versionCstim.txt	Procedure/versionCproc.txt	Tetris		MIXER		MIXER	OFF	AdHoc_Restudy_L2	357	Study	No	3	AdHoc_Restudy_L2	ON		3000								
A3J01A18AJBGKX	Collector	1	381	2016-03-06T17:00:34-08:00	5	1	Stimuli/versionCstim.txt	Procedure/versionCproc.txt	Tetris		FREEZER		FREEZER	OFF	AdHoc_Restudy_L2	342	Study	No	3	AdHoc_Restudy_L2	ON		3000								
A3J01A18AJBGKX	Collector	1	382	2016-03-06T17:00:39-08:00	5	1	Stimuli/versionCstim.txt	Procedure/versionCproc.txt	Tetris		MEASURING CUP		MEASURING CUP	OFF	AdHoc_Restudy_L2	349	Study	No	3	AdHoc_Restudy_L2	ON		3000								
A3J01A18AJBGKX	Collector	1	383	2016-03-06T17:00:44-08:00	5	1	Stimuli/versionCstim.txt	Procedure/versionCproc.txt	Tetris		KETTLE		KETTLE	OFF	AdHoc_Restudy_L2	344	Study	No	3	AdHoc_Restudy_L2	ON		3000								
A3J01A18AJBGKX	Collector	1	384	2016-03-06T17:00:49-08:00	5	1	Stimuli/versionCstim.txt	Procedure/versionCproc.txt	Tetris		SKILLET		SKILLET	OFF	AdHoc_Restudy_L2	355	Study	No	3	AdHoc_Restudy_L2	ON		3000								
A3J01A18AJBGKX	Collector	1	385	2016-03-06T17:00:54-08:00	5	1	Stimuli/versionCstim.txt	Procedure/versionCproc.txt	Tetris		n/a	n/a	n/a	n/a	n/a	0	Instruct	N/A	User	Restudy Instructions: You will now view this list again, but in a different order. Click the button below to begin.	OFF		2460								
A3J01A18AJBGKX	Collector	1	386	2016-03-06T17:00:58-08:00	4	1	Stimuli/versionCstim.txt	Procedure/versionCproc.txt	Tetris		OVEN MITTS		OVEN MITTS	OFF	AdHoc_Restudy_L2	368	Study	No	3	AdHoc_Restudy_L2	ON		3000								
A3J01A18AJBGKX	Collector	1	387	2016-03-06T17:01:03-08:00	5	1	Stimuli/versionCstim.txt	Procedure/versionCproc.txt	Tetris		MIXER		MIXER	OFF	AdHoc_Restudy_L2	377	Study	No	3	AdHoc_Restudy_L2	ON		3000								
A3J01A18AJBGKX	Collector	1	388	2016-03-06T17:01:08-08:00	5	1	Stimuli/versionCstim.txt	Procedure/versionCproc.txt	Tetris		KNIFE		KNIFE	OFF	AdHoc_Restudy_L2	363	Study	No	3	AdHoc_Restudy_L2	ON		3000								
A3J01A18AJBGKX	Collector	1	389	2016-03-06T17:01:12-08:00	4	1	Stimuli/versionCstim.txt	Procedure/versionCproc.txt	Tetris		STOVE		STOVE	OFF	AdHoc_Restudy_L2	381	Study	No	3	AdHoc_Restudy_L2	ON		3000								
A3J01A18AJBGKX	Collector	1	390	2016-03-06T17:01:18-08:00	6	1	Stimuli/versionCstim.txt	Procedure/versionCproc.txt	Tetris		SPICE RACK		SPICE RACK	OFF	AdHoc_Restudy_L2	380	Study	No	3	AdHoc_Restudy_L2	ON		3000								
A3J01A18AJBGKX	Collector	1	391	2016-03-06T17:01:23-08:00	5	1	Stimuli/versionCstim.txt	Procedure/versionCproc.txt	Tetris		SKILLET		SKILLET	OFF	AdHoc_Restudy_L2	375	Study	No	3	AdHoc_Restudy_L2	ON		3000								
A3J01A18AJBGKX	Collector	1	392	2016-03-06T17:01:28-08:00	5	1	Stimuli/versionCstim.txt	Procedure/versionCproc.txt	Tetris		PLATTER		PLATTER	OFF	AdHoc_Restudy_L2	365	Study	No	3	AdHoc_Restudy_L2	ON		3000								
A3J01A18AJBGKX	Collector	1	393	2016-03-06T17:01:33-08:00	5	1	Stimuli/versionCstim.txt	Procedure/versionCproc.txt	Tetris		FREEZER		FREEZER	OFF	AdHoc_Restudy_L2	362	Study	No	3	AdHoc_Restudy_L2	ON		3000								
A3J01A18AJBGKX	Collector	1	394	2016-03-06T17:01:39-08:00	6	1	Stimuli/versionCstim.txt	Procedure/versionCproc.txt	Tetris		KETTLE		KETTLE	OFF	AdHoc_Restudy_L2	364	Study	No	3	AdHoc_Restudy_L2	ON		3000								
A3J01A18AJBGKX	Collector	1	395	2016-03-06T17:01:44-08:00	5	1	Stimuli/versionCstim.txt	Procedure/versionCproc.txt	Tetris		POTS		POTS	OFF	AdHoc_Restudy_L2	379	Study	No	3	AdHoc_Restudy_L2	ON		3000								
A3J01A18AJBGKX	Collector	1	396	2016-03-06T17:01:50-08:00	6	1	Stimuli/versionCstim.txt	Procedure/versionCproc.txt	Tetris		PLATE		PLATE	OFF	AdHoc_Restudy_L2	366	Study	No	3	AdHoc_Restudy_L2	ON		3000								
A3J01A18AJBGKX	Collector	1	397	2016-03-06T17:01:54-08:00	4	1	Stimuli/versionCstim.txt	Procedure/versionCproc.txt	Tetris		GLASS		GLASS	OFF	AdHoc_Restudy_L2	371	Study	No	3	AdHoc_Restudy_L2	ON		3000								
A3J01A18AJBGKX	Collector	1	398	2016-03-06T17:01:59-08:00	5	1	Stimuli/versionCstim.txt	Procedure/versionCproc.txt	Tetris		FORK		FORK	OFF	AdHoc_Restudy_L2	373	Study	No	3	AdHoc_Restudy_L2	ON		3000								
A3J01A18AJBGKX	Collector	1	399	2016-03-06T17:02:04-08:00	5	1	Stimuli/versionCstim.txt	Procedure/versionCproc.txt	Tetris		SAUCE PAN		SAUCE PAN	OFF	AdHoc_Restudy_L2	374	Study	No	3	AdHoc_Restudy_L2	ON		3000								
A3J01A18AJBGKX	Collector	1	400	2016-03-06T17:02:09-08:00	5	1	Stimuli/versionCstim.txt	Procedure/versionCproc.txt	Tetris		BOWL		BOWL	OFF	AdHoc_Restudy_L2	367	Study	No	3	AdHoc_Restudy_L2	ON		3000								
A3J01A18AJBGKX	Collector	1	401	2016-03-06T17:02:14-08:00	5	1	Stimuli/versionCstim.txt	Procedure/versionCproc.txt	Tetris		STRAINER		STRAINER	OFF	AdHoc_Restudy_L2	376	Study	No	3	AdHoc_Restudy_L2	ON		3000								
A3J01A18AJBGKX	Collector	1	402	2016-03-06T17:02:19-08:00	5	1	Stimuli/versionCstim.txt	Procedure/versionCproc.txt	Tetris		SPOON		SPOON	OFF	AdHoc_Restudy_L2	372	Study	No	3	AdHoc_Restudy_L2	ON		3000								
A3J01A18AJBGKX	Collector	1	403	2016-03-06T17:02:23-08:00	4	1	Stimuli/versionCstim.txt	Procedure/versionCproc.txt	Tetris		CAN OPENER		CAN OPENER	OFF	AdHoc_Restudy_L2	378	Study	No	3	AdHoc_Restudy_L2	ON		3000								
A3J01A18AJBGKX	Collector	1	404	2016-03-06T17:02:29-08:00	6	1	Stimuli/versionCstim.txt	Procedure/versionCproc.txt	Tetris		MEASURING CUP		MEASURING CUP	OFF	AdHoc_Restudy_L2	369	Study	No	3	AdHoc_Restudy_L2	ON		3000								
A3J01A18AJBGKX	Collector	1	405	2016-03-06T17:02:33-08:00	4	1	Stimuli/versionCstim.txt	Procedure/versionCproc.txt	Tetris		MUG		MUG	OFF	AdHoc_Restudy_L2	370	Study	No	3	AdHoc_Restudy_L2	ON		3000								
A3J01A18AJBGKX	Collector	1	406	2016-03-06T17:04:07-08:00	94	1	Stimuli/versionCstim.txt	Procedure/versionCproc.txt	Tetris		n/a	n/a	n/a	n/a	n/a	0	Instruct	N/A	User	Click the button below for a new list.	OFF		90290								
A3J01A18AJBGKX	Collector	1	407	2016-03-06T17:04:12-08:00	5	1	Stimuli/versionCstim.txt	Procedure/versionCproc.txt	Tetris		SHELTER		SHELTER	OFF	Unrel_Restudy_L3	400	Study	No	3	Unrel_Restudy_L3	ON		3000								
A3J01A18AJBGKX	Collector	1	408	2016-03-06T17:04:16-08:00	4	1	Stimuli/versionCstim.txt	Procedure/versionCproc.txt	Tetris		PRESS		PRESS	OFF	Unrel_Restudy_L3	397	Study	No	3	Unrel_Restudy_L3	ON		3000								
A3J01A18AJBGKX	Collector	1	409	2016-03-06T17:04:21-08:00	5	1	Stimuli/versionCstim.txt	Procedure/versionCproc.txt	Tetris		MOAT		MOAT	OFF	Unrel_Restudy_L3	390	Study	No	3	Unrel_Restudy_L3	ON		3000								
A3J01A18AJBGKX	Collector	1	410	2016-03-06T17:04:25-08:00	4	1	Stimuli/versionCstim.txt	Procedure/versionCproc.txt	Tetris		WIRE		WIRE	OFF	Unrel_Restudy_L3	385	Study	No	3	Unrel_Restudy_L3	ON		3000								
A3J01A18AJBGKX	Collector	1	411	2016-03-06T17:04:31-08:00	6	1	Stimuli/versionCstim.txt	Procedure/versionCproc.txt	Tetris		TUNE		TUNE	OFF	Unrel_Restudy_L3	391	Study	No	3	Unrel_Restudy_L3	ON		3000								
A3J01A18AJBGKX	Collector	1	412	2016-03-06T17:04:36-08:00	5	1	Stimuli/versionCstim.txt	Procedure/versionCproc.txt	Tetris		KAYAK		KAYAK	OFF	Unrel_Restudy_L3	399	Study	No	3	Unrel_Restudy_L3	ON		3000								
A3J01A18AJBGKX	Collector	1	413	2016-03-06T17:04:41-08:00	5	1	Stimuli/versionCstim.txt	Procedure/versionCproc.txt	Tetris		SKEWERS		SKEWERS	OFF	Unrel_Restudy_L3	388	Study	No	3	Unrel_Restudy_L3	ON		3000								
A3J01A18AJBGKX	Collector	1	414	2016-03-06T17:04:47-08:00	6	1	Stimuli/versionCstim.txt	Procedure/versionCproc.txt	Tetris		PIT		PIT	OFF	Unrel_Restudy_L3	389	Study	No	3	Unrel_Restudy_L3	ON		3000								
A3J01A18AJBGKX	Collector	1	415	2016-03-06T17:04:51-08:00	4	1	Stimuli/versionCstim.txt	Procedure/versionCproc.txt	Tetris		PENNY		PENNY	OFF	Unrel_Restudy_L3	386	Study	No	3	Unrel_Restudy_L3	ON		3000								
A3J01A18AJBGKX	Collector	1	416	2016-03-06T17:04:57-08:00	6	1	Stimuli/versionCstim.txt	Procedure/versionCproc.txt	Tetris		MANE		MANE	OFF	Unrel_Restudy_L3	396	Study	No	3	Unrel_Restudy_L3	ON		3000								
A3J01A18AJBGKX	Collector	1	417	2016-03-06T17:05:01-08:00	4	1	Stimuli/versionCstim.txt	Procedure/versionCproc.txt	Tetris		WASHCLOTH		WASHCLOTH	OFF	Unrel_Restudy_L3	398	Study	No	3	Unrel_Restudy_L3	ON		3000								
A3J01A18AJBGKX	Collector	1	418	2016-03-06T17:05:07-08:00	6	1	Stimuli/versionCstim.txt	Procedure/versionCproc.txt	Tetris		PATRON		PATRON	OFF	Unrel_Restudy_L3	394	Study	No	3	Unrel_Restudy_L3	ON		3000								
A3J01A18AJBGKX	Collector	1	419	2016-03-06T17:05:11-08:00	4	1	Stimuli/versionCstim.txt	Procedure/versionCproc.txt	Tetris		DINER		DINER	OFF	Unrel_Restudy_L3	395	Study	No	3	Unrel_Restudy_L3	ON		3000								
A3J01A18AJBGKX	Collector	1	420	2016-03-06T17:05:16-08:00	5	1	Stimuli/versionCstim.txt	Procedure/versionCproc.txt	Tetris		PICKLE		PICKLE	OFF	Unrel_Restudy_L3	382	Study	No	3	Unrel_Restudy_L3	ON		3000								
A3J01A18AJBGKX	Collector	1	421	2016-03-06T17:05:21-08:00	5	1	Stimuli/versionCstim.txt	Procedure/versionCproc.txt	Tetris		TORTOISE		TORTOISE	OFF	Unrel_Restudy_L3	392	Study	No	3	Unrel_Restudy_L3	ON		3000								
A3J01A18AJBGKX	Collector	1	422	2016-03-06T17:05:26-08:00	5	1	Stimuli/versionCstim.txt	Procedure/versionCproc.txt	Tetris		FLASK		FLASK	OFF	Unrel_Restudy_L3	383	Study	No	3	Unrel_Restudy_L3	ON		3000								
A3J01A18AJBGKX	Collector	1	423	2016-03-06T17:05:31-08:00	5	1	Stimuli/versionCstim.txt	Procedure/versionCproc.txt	Tetris		ARROW		ARROW	OFF	Unrel_Restudy_L3	387	Study	No	3	Unrel_Restudy_L3	ON		3000								
A3J01A18AJBGKX	Collector	1	424	2016-03-06T17:05:36-08:00	5	1	Stimuli/versionCstim.txt	Procedure/versionCproc.txt	Tetris		SHOP		SHOP	OFF	Unrel_Restudy_L3	401	Study	No	3	Unrel_Restudy_L3	ON		3000								
A3J01A18AJBGKX	Collector	1	425	2016-03-06T17:05:41-08:00	5	1	Stimuli/versionCstim.txt	Procedure/versionCproc.txt	Tetris		PASTE		PASTE	OFF	Unrel_Restudy_L3	393	Study	No	3	Unrel_Restudy_L3	ON		3000								
A3J01A18AJBGKX	Collector	1	426	2016-03-06T17:05:45-08:00	4	1	Stimuli/versionCstim.txt	Procedure/versionCproc.txt	Tetris		PALE		PALE	OFF	Unrel_Restudy_L3	384	Study	No	3	Unrel_Restudy_L3	ON		3000								
A3J01A18AJBGKX	Collector	1	427	2016-03-06T17:05:53-08:00	8	1	Stimuli/versionCstim.txt	Procedure/versionCproc.txt	Tetris		n/a	n/a	n/a	n/a	n/a	0	Instruct	N/A	User	Restudy Instructions: You will now view this list again, but in a different order. Click the button below to begin.	OFF		5090								
A3J01A18AJBGKX	Collector	1	428	2016-03-06T17:05:58-08:00	5	1	Stimuli/versionCstim.txt	Procedure/versionCproc.txt	Tetris		SKEWERS		SKEWERS	OFF	Unrel_Restudy_L3	408	Study	No	3	Unrel_Restudy_L3	ON		3000								
A3J01A18AJBGKX	Collector	1	429	2016-03-06T17:06:04-08:00	6	1	Stimuli/versionCstim.txt	Procedure/versionCproc.txt	Tetris		FLASK		FLASK	OFF	Unrel_Restudy_L3	403	Study	No	3	Unrel_Restudy_L3	ON		3000								
A3J01A18AJBGKX	Collector	1	430	2016-03-06T17:06:08-08:00	4	1	Stimuli/versionCstim.txt	Procedure/versionCproc.txt	Tetris		SHELTER		SHELTER	OFF	Unrel_Restudy_L3	420	Study	No	3	Unrel_Restudy_L3	ON		3000								
A3J01A18AJBGKX	Collector	1	431	2016-03-06T17:06:14-08:00	6	1	Stimuli/versionCstim.txt	Procedure/versionCproc.txt	Tetris		PATRON		PATRON	OFF	Unrel_Restudy_L3	414	Study	No	3	Unrel_Restudy_L3	ON		3000								
A3J01A18AJBGKX	Collector	1	432	2016-03-06T17:06:19-08:00	5	1	Stimuli/versionCstim.txt	Procedure/versionCproc.txt	Tetris		ARROW		ARROW	OFF	Unrel_Restudy_L3	407	Study	No	3	Unrel_Restudy_L3	ON		3000								
A3J01A18AJBGKX	Collector	1	433	2016-03-06T17:06:24-08:00	5	1	Stimuli/versionCstim.txt	Procedure/versionCproc.txt	Tetris		MOAT		MOAT	OFF	Unrel_Restudy_L3	410	Study	No	3	Unrel_Restudy_L3	ON		3000								
A3J01A18AJBGKX	Collector	1	434	2016-03-06T17:06:29-08:00	5	1	Stimuli/versionCstim.txt	Procedure/versionCproc.txt	Tetris		PENNY		PENNY	OFF	Unrel_Restudy_L3	406	Study	No	3	Unrel_Restudy_L3	ON		3000								
A3J01A18AJBGKX	Collector	1	435	2016-03-06T17:06:34-08:00	5	1	Stimuli/versionCstim.txt	Procedure/versionCproc.txt	Tetris		TORTOISE		TORTOISE	OFF	Unrel_Restudy_L3	412	Study	No	3	Unrel_Restudy_L3	ON		3000								
A3J01A18AJBGKX	Collector	1	436	2016-03-06T17:06:39-08:00	5	1	Stimuli/versionCstim.txt	Procedure/versionCproc.txt	Tetris		WIRE		WIRE	OFF	Unrel_Restudy_L3	405	Study	No	3	Unrel_Restudy_L3	ON		3000								
A3J01A18AJBGKX	Collector	1	437	2016-03-06T17:06:45-08:00	6	1	Stimuli/versionCstim.txt	Procedure/versionCproc.txt	Tetris		DINER		DINER	OFF	Unrel_Restudy_L3	415	Study	No	3	Unrel_Restudy_L3	ON		3000								
A3J01A18AJBGKX	Collector	1	438	2016-03-06T17:06:50-08:00	5	1	Stimuli/versionCstim.txt	Procedure/versionCproc.txt	Tetris		WASHCLOTH		WASHCLOTH	OFF	Unrel_Restudy_L3	418	Study	No	3	Unrel_Restudy_L3	ON		3000								
A3J01A18AJBGKX	Collector	1	439	2016-03-06T17:06:54-08:00	4	1	Stimuli/versionCstim.txt	Procedure/versionCproc.txt	Tetris		PICKLE		PICKLE	OFF	Unrel_Restudy_L3	402	Study	No	3	Unrel_Restudy_L3	ON		3000								
A3J01A18AJBGKX	Collector	1	440	2016-03-06T17:06:59-08:00	5	1	Stimuli/versionCstim.txt	Procedure/versionCproc.txt	Tetris		PIT		PIT	OFF	Unrel_Restudy_L3	409	Study	No	3	Unrel_Restudy_L3	ON		3000								
A3J01A18AJBGKX	Collector	1	441	2016-03-06T17:07:04-08:00	5	1	Stimuli/versionCstim.txt	Procedure/versionCproc.txt	Tetris		TUNE		TUNE	OFF	Unrel_Restudy_L3	411	Study	No	3	Unrel_Restudy_L3	ON		3000								
A3J01A18AJBGKX	Collector	1	442	2016-03-06T17:07:09-08:00	5	1	Stimuli/versionCstim.txt	Procedure/versionCproc.txt	Tetris		KAYAK		KAYAK	OFF	Unrel_Restudy_L3	419	Study	No	3	Unrel_Restudy_L3	ON		3000								
A3J01A18AJBGKX	Collector	1	443	2016-03-06T17:07:14-08:00	5	1	Stimuli/versionCstim.txt	Procedure/versionCproc.txt	Tetris		SHOP		SHOP	OFF	Unrel_Restudy_L3	421	Study	No	3	Unrel_Restudy_L3	ON		3000								
A3J01A18AJBGKX	Collector	1	444	2016-03-06T17:07:19-08:00	5	1	Stimuli/versionCstim.txt	Procedure/versionCproc.txt	Tetris		PALE		PALE	OFF	Unrel_Restudy_L3	404	Study	No	3	Unrel_Restudy_L3	ON		3000								
A3J01A18AJBGKX	Collector	1	445	2016-03-06T17:07:24-08:00	5	1	Stimuli/versionCstim.txt	Procedure/versionCproc.txt	Tetris		PRESS		PRESS	OFF	Unrel_Restudy_L3	417	Study	No	3	Unrel_Restudy_L3	ON		3000								
A3J01A18AJBGKX	Collector	1	446	2016-03-06T17:07:29-08:00	5	1	Stimuli/versionCstim.txt	Procedure/versionCproc.txt	Tetris		PASTE		PASTE	OFF	Unrel_Restudy_L3	413	Study	No	3	Unrel_Restudy_L3	ON		3000								
A3J01A18AJBGKX	Collector	1	447	2016-03-06T17:07:35-08:00	6	1	Stimuli/versionCstim.txt	Procedure/versionCproc.txt	Tetris		MANE		MANE	OFF	Unrel_Restudy_L3	416	Study	No	3	Unrel_Restudy_L3	ON		3000								
A3J01A18AJBGKX	Collector	1	448	2016-03-06T17:07:41-08:00	6	1	Stimuli/versionCstim.txt	Procedure/versionCproc.txt	Tetris		n/a	n/a	n/a	n/a	n/a	0	Instruct	N/A	User	Click the button below for a new list.	OFF		3850								
A3J01A18AJBGKX	Collector	1	449	2016-03-06T17:07:47-08:00	6	1	Stimuli/versionCstim.txt	Procedure/versionCproc.txt	Tetris		FALL		FALL	OFF	Unrel_Restudy_L4	441	Study	No	3	Unrel_Restudy_L4	ON		3000								
A3J01A18AJBGKX	Collector	1	450	2016-03-06T17:07:51-08:00	4	1	Stimuli/versionCstim.txt	Procedure/versionCproc.txt	Tetris		MAILBOX		MAILBOX	OFF	Unrel_Restudy_L4	440	Study	No	3	Unrel_Restudy_L4	ON		3000								
A3J01A18AJBGKX	Collector	1	451	2016-03-06T17:07:57-08:00	6	1	Stimuli/versionCstim.txt	Procedure/versionCproc.txt	Tetris		COOKIE		COOKIE	OFF	Unrel_Restudy_L4	433	Study	No	3	Unrel_Restudy_L4	ON		3000								
A3J01A18AJBGKX	Collector	1	452	2016-03-06T17:08:02-08:00	5	1	Stimuli/versionCstim.txt	Procedure/versionCproc.txt	Tetris		METAL		METAL	OFF	Unrel_Restudy_L4	430	Study	No	3	Unrel_Restudy_L4	ON		3000								
A3J01A18AJBGKX	Collector	1	453	2016-03-06T17:08:06-08:00	4	1	Stimuli/versionCstim.txt	Procedure/versionCproc.txt	Tetris		FLAKE		FLAKE	OFF	Unrel_Restudy_L4	429	Study	No	3	Unrel_Restudy_L4	ON		3000								
A3J01A18AJBGKX	Collector	1	454	2016-03-06T17:08:11-08:00	5	1	Stimuli/versionCstim.txt	Procedure/versionCproc.txt	Tetris		ESTATE		ESTATE	OFF	Unrel_Restudy_L4	423	Study	No	3	Unrel_Restudy_L4	ON		3000								
A3J01A18AJBGKX	Collector	1	455	2016-03-06T17:08:16-08:00	5	1	Stimuli/versionCstim.txt	Procedure/versionCproc.txt	Tetris		HATCHET		HATCHET	OFF	Unrel_Restudy_L4	438	Study	No	3	Unrel_Restudy_L4	ON		3000								
A3J01A18AJBGKX	Collector	1	456	2016-03-06T17:08:21-08:00	5	1	Stimuli/versionCstim.txt	Procedure/versionCproc.txt	Tetris		PARK		PARK	OFF	Unrel_Restudy_L4	428	Study	No	3	Unrel_Restudy_L4	ON		3000								
A3J01A18AJBGKX	Collector	1	457	2016-03-06T17:08:26-08:00	5	1	Stimuli/versionCstim.txt	Procedure/versionCproc.txt	Tetris		VINE		VINE	OFF	Unrel_Restudy_L4	424	Study	No	3	Unrel_Restudy_L4	ON		3000								
A3J01A18AJBGKX	Collector	1	458	2016-03-06T17:08:31-08:00	5	1	Stimuli/versionCstim.txt	Procedure/versionCproc.txt	Tetris		BAGPIPE		BAGPIPE	OFF	Unrel_Restudy_L4	432	Study	No	3	Unrel_Restudy_L4	ON		3000								
A3J01A18AJBGKX	Collector	1	459	2016-03-06T17:08:36-08:00	5	1	Stimuli/versionCstim.txt	Procedure/versionCproc.txt	Tetris		FERRY		FERRY	OFF	Unrel_Restudy_L4	422	Study	No	3	Unrel_Restudy_L4	ON		3000								
A3J01A18AJBGKX	Collector	1	460	2016-03-06T17:08:40-08:00	4	1	Stimuli/versionCstim.txt	Procedure/versionCproc.txt	Tetris		TRICYCLE		TRICYCLE	OFF	Unrel_Restudy_L4	431	Study	No	3	Unrel_Restudy_L4	ON		3000								
A3J01A18AJBGKX	Collector	1	461	2016-03-06T17:08:45-08:00	5	1	Stimuli/versionCstim.txt	Procedure/versionCproc.txt	Tetris		BEEHIVE		BEEHIVE	OFF	Unrel_Restudy_L4	435	Study	No	3	Unrel_Restudy_L4	ON		3000								
A3J01A18AJBGKX	Collector	1	462	2016-03-06T17:08:51-08:00	6	1	Stimuli/versionCstim.txt	Procedure/versionCproc.txt	Tetris		BANNER		BANNER	OFF	Unrel_Restudy_L4	436	Study	No	3	Unrel_Restudy_L4	ON		3000								
A3J01A18AJBGKX	Collector	1	463	2016-03-06T17:08:56-08:00	5	1	Stimuli/versionCstim.txt	Procedure/versionCproc.txt	Tetris		DUGOUT		DUGOUT	OFF	Unrel_Restudy_L4	425	Study	No	3	Unrel_Restudy_L4	ON		3000								
A3J01A18AJBGKX	Collector	1	464	2016-03-06T17:09:02-08:00	6	1	Stimuli/versionCstim.txt	Procedure/versionCproc.txt	Tetris		CEDAR		CEDAR	OFF	Unrel_Restudy_L4	434	Study	No	3	Unrel_Restudy_L4	ON		3000								
A3J01A18AJBGKX	Collector	1	465	2016-03-06T17:09:07-08:00	5	1	Stimuli/versionCstim.txt	Procedure/versionCproc.txt	Tetris		SEED		SEED	OFF	Unrel_Restudy_L4	439	Study	No	3	Unrel_Restudy_L4	ON		3000								
A3J01A18AJBGKX	Collector	1	466	2016-03-06T17:09:13-08:00	6	1	Stimuli/versionCstim.txt	Procedure/versionCproc.txt	Tetris		NUN		NUN	OFF	Unrel_Restudy_L4	426	Study	No	3	Unrel_Restudy_L4	ON		3000								
A3J01A18AJBGKX	Collector	1	467	2016-03-06T17:09:18-08:00	5	1	Stimuli/versionCstim.txt	Procedure/versionCproc.txt	Tetris		STATION		STATION	OFF	Unrel_Restudy_L4	427	Study	No	3	Unrel_Restudy_L4	ON		3000								
A3J01A18AJBGKX	Collector	1	468	2016-03-06T17:09:23-08:00	5	1	Stimuli/versionCstim.txt	Procedure/versionCproc.txt	Tetris		GALLERY		GALLERY	OFF	Unrel_Restudy_L4	437	Study	No	3	Unrel_Restudy_L4	ON		3000								
A3J01A18AJBGKX	Collector	1	469	2016-03-06T17:09:28-08:00	5	1	Stimuli/versionCstim.txt	Procedure/versionCproc.txt	Tetris		n/a	n/a	n/a	n/a	n/a	0	Instruct	N/A	User	Restudy Instructions: You will now view this list again, but in a different order. Click the button below to begin.	OFF		3390								
