"X.Username","X.ExperimentName","X.Session","X.Trial","X.Date","X.TimeDif","X.Condition.Number","X.Stimuli.File","X.Order.File","X.Condition.Description","X.Condition.Notes","Stimuli.Target","Stimuli.Cue","Stimuli.Answer","Stimuli.Shuffle","Stimuli.Stimuli.Notes","Procedure.Item","Procedure.Trial.Type","Procedure.Post.Trial","Procedure.Timing","Procedure.Procedure.Notes","Procedure.Shuffle","Response.Response1","Response.RT","Response.RTkey","Response.RTlast","Response.strictAcc","Response.lenientAcc","Response.Accuracy","Response.JOL","Response.postRT","Response.postRTkey"
"A2B7SPYBPF7H8I","Collector",1,1,"2016-06-06T15:15:21-07:00","-",1,"Stimuli/versionAstim.txt","Procedure/versionAproc.txt","Tetris",NA,"n/a","n/a","n/a","n/a","n/a",0,"Instruct","N/A","User","Click the button below for the first list.","Off","",1590,NA,NA,NA,NA,NA,NA,NA,NA
"A2B7SPYBPF7H8I","Collector",1,2,"2016-06-06T15:15:26-07:00","5",1,"Stimuli/versionAstim.txt","Procedure/versionAproc.txt","Tetris",NA,"MONEY","","MONEY","OFF","AdHoc_G_L1",4,"Study","No","3","AdHoc_G_L1","ON","",3000,NA,NA,NA,NA,NA,NA,NA,NA
"A2B7SPYBPF7H8I","Collector",1,3,"2016-06-06T15:15:34-07:00","8",1,"Stimuli/versionAstim.txt","Procedure/versionAproc.txt","Tetris",NA,"SPROUTS","","SPROUTS","OFF","AdHoc_G_L1",17,"Study","No","3","AdHoc_G_L1","ON","",3000,NA,NA,NA,NA,NA,NA,NA,NA
"A2B7SPYBPF7H8I","Collector",1,4,"2016-06-06T15:15:39-07:00","5",1,"Stimuli/versionAstim.txt","Procedure/versionAproc.txt","Tetris",NA,"MOSS","","MOSS","OFF","AdHoc_G_L1",7,"Study","No","3","AdHoc_G_L1","ON","",3000,NA,NA,NA,NA,NA,NA,NA,NA
"A2B7SPYBPF7H8I","Collector",1,5,"2016-06-06T15:15:47-07:00","8",1,"Stimuli/versionAstim.txt","Procedure/versionAproc.txt","Tetris",NA,"CUCUMBER","","CUCUMBER","OFF","AdHoc_G_L1",2,"Study","No","3","AdHoc_G_L1","ON","",3000,NA,NA,NA,NA,NA,NA,NA,NA
"A2B7SPYBPF7H8I","Collector",1,6,"2016-06-06T15:15:52-07:00","5",1,"Stimuli/versionAstim.txt","Procedure/versionAproc.txt","Tetris",NA,"GRASSHOPPER","","GRASSHOPPER","OFF","AdHoc_G_L1",14,"Study","No","3","AdHoc_G_L1","ON","",3000,NA,NA,NA,NA,NA,NA,NA,NA
"A2B7SPYBPF7H8I","Collector",1,7,"2016-06-06T15:15:58-07:00","6",1,"Stimuli/versionAstim.txt","Procedure/versionAproc.txt","Tetris",NA,"LIZARD","","LIZARD","OFF","AdHoc_G_L1",12,"Study","No","3","AdHoc_G_L1","ON","",3000,NA,NA,NA,NA,NA,NA,NA,NA
"A2B7SPYBPF7H8I","Collector",1,8,"2016-06-06T15:16:04-07:00","6",1,"Stimuli/versionAstim.txt","Procedure/versionAproc.txt","Tetris",NA,"LEAVES","","LEAVES","OFF","AdHoc_G_L1",3,"Study","No","3","AdHoc_G_L1","ON","",3000,NA,NA,NA,NA,NA,NA,NA,NA
"A2B7SPYBPF7H8I","Collector",1,9,"2016-06-06T15:16:10-07:00","6",1,"Stimuli/versionAstim.txt","Procedure/versionAproc.txt","Tetris",NA,"ALGAE","","ALGAE","OFF","AdHoc_G_L1",16,"Study","No","3","AdHoc_G_L1","ON","",3000,NA,NA,NA,NA,NA,NA,NA,NA
"A2B7SPYBPF7H8I","Collector",1,10,"2016-06-06T15:16:15-07:00","5",1,"Stimuli/versionAstim.txt","Procedure/versionAproc.txt","Tetris",NA,"LILY PAD","","LILY PAD","OFF","AdHoc_G_L1",8,"Study","No","3","AdHoc_G_L1","ON","",3000,NA,NA,NA,NA,NA,NA,NA,NA
"A2B7SPYBPF7H8I","Collector",1,11,"2016-06-06T15:16:21-07:00","6",1,"Stimuli/versionAstim.txt","Procedure/versionAproc.txt","Tetris",NA,"CHAMELEON","","CHAMELEON","OFF","AdHoc_G_L1",18,"Study","No","3","AdHoc_G_L1","ON","",3000,NA,NA,NA,NA,NA,NA,NA,NA
"A2B7SPYBPF7H8I","Collector",1,12,"2016-06-06T15:16:27-07:00","6",1,"Stimuli/versionAstim.txt","Procedure/versionAproc.txt","Tetris",NA,"TENNIS BALL","","TENNIS BALL","OFF","AdHoc_G_L1",13,"Study","No","3","AdHoc_G_L1","ON","",3000,NA,NA,NA,NA,NA,NA,NA,NA
"A2B7SPYBPF7H8I","Collector",1,13,"2016-06-06T15:16:32-07:00","5",1,"Stimuli/versionAstim.txt","Procedure/versionAproc.txt","Tetris",NA,"JADE","","JADE","OFF","AdHoc_G_L1",10,"Study","No","3","AdHoc_G_L1","ON","",3000,NA,NA,NA,NA,NA,NA,NA,NA
"A2B7SPYBPF7H8I","Collector",1,14,"2016-06-06T15:16:39-07:00","7",1,"Stimuli/versionAstim.txt","Procedure/versionAproc.txt","Tetris",NA,"SHAMROCK","","SHAMROCK","OFF","AdHoc_G_L1",9,"Study","No","3","AdHoc_G_L1","ON","",3000,NA,NA,NA,NA,NA,NA,NA,NA
"A2B7SPYBPF7H8I","Collector",1,15,"2016-06-06T15:16:44-07:00","5",1,"Stimuli/versionAstim.txt","Procedure/versionAproc.txt","Tetris",NA,"SNAKE","","SNAKE","OFF","AdHoc_G_L1",15,"Study","No","3","AdHoc_G_L1","ON","",3000,NA,NA,NA,NA,NA,NA,NA,NA
"A2B7SPYBPF7H8I","Collector",1,16,"2016-06-06T15:16:50-07:00","6",1,"Stimuli/versionAstim.txt","Procedure/versionAproc.txt","Tetris",NA,"TREE","","TREE","OFF","AdHoc_G_L1",6,"Study","No","3","AdHoc_G_L1","ON","",3000,NA,NA,NA,NA,NA,NA,NA,NA
"A2B7SPYBPF7H8I","Collector",1,17,"2016-06-06T15:16:57-07:00","7",1,"Stimuli/versionAstim.txt","Procedure/versionAproc.txt","Tetris",NA,"FROG","","FROG","OFF","AdHoc_G_L1",5,"Study","No","3","AdHoc_G_L1","ON","",3000,NA,NA,NA,NA,NA,NA,NA,NA
"A2B7SPYBPF7H8I","Collector",1,18,"2016-06-06T15:17:03-07:00","6",1,"Stimuli/versionAstim.txt","Procedure/versionAproc.txt","Tetris",NA,"LIME","","LIME","OFF","AdHoc_G_L1",19,"Study","No","3","AdHoc_G_L1","ON","",3000,NA,NA,NA,NA,NA,NA,NA,NA
"A2B7SPYBPF7H8I","Collector",1,19,"2016-06-06T15:17:09-07:00","6",1,"Stimuli/versionAstim.txt","Procedure/versionAproc.txt","Tetris",NA,"SALAD","","SALAD","OFF","AdHoc_G_L1",21,"Study","No","3","AdHoc_G_L1","ON","",3000,NA,NA,NA,NA,NA,NA,NA,NA
"A2B7SPYBPF7H8I","Collector",1,20,"2016-06-06T15:17:15-07:00","6",1,"Stimuli/versionAstim.txt","Procedure/versionAproc.txt","Tetris",NA,"CATERPILLAR","","CATERPILLAR","OFF","AdHoc_G_L1",20,"Study","No","3","AdHoc_G_L1","ON","",3000,NA,NA,NA,NA,NA,NA,NA,NA
"A2B7SPYBPF7H8I","Collector",1,21,"2016-06-06T15:17:21-07:00","6",1,"Stimuli/versionAstim.txt","Procedure/versionAproc.txt","Tetris",NA,"JUNGLE","","JUNGLE","OFF","AdHoc_G_L1",11,"Study","No","3","AdHoc_G_L1","ON","",3000,NA,NA,NA,NA,NA,NA,NA,NA
"A2B7SPYBPF7H8I","Collector",1,22,"2016-06-06T15:17:30-07:00","9",1,"Stimuli/versionAstim.txt","Procedure/versionAproc.txt","Tetris",NA,"n/a","n/a","n/a","n/a","n/a",0,"Instruct","N/A","User","Guess Instructions: 5 words related to the list you just saw were not presented. Try to guess these words by typing them into the dialog box on the next screen. You must guess at least one.","OFF","",5630,NA,NA,NA,NA,NA,NA,NA,NA
"A2B7SPYBPF7H8I","Collector",1,23,"2016-06-06T15:18:24-07:00","54",1,"Stimuli/versionAstim.txt","Procedure/versionAproc.txt","Tetris",NA,"n/a","n/a","n/a","n/a","n/a",0,"freerecall","N/A","User","Guess Below. You must make at least one guess. Click submit when you are finished.","OFF","Insect <br />  <br /> green <br />  <br /> moss <br />  <br /> tennis racket <br />  <br /> ribbit",45990,3460,43170,NA,NA,NA,NA,NA,NA
"A2B7SPYBPF7H8I","Collector",1,24,"2016-06-06T15:18:30-07:00","6",1,"Stimuli/versionAstim.txt","Procedure/versionAproc.txt","Tetris",NA,"n/a","n/a","n/a","n/a","n/a",0,"Instruct","N/A","User","Click the button below for the next list.","OFF","",3070,NA,NA,NA,NA,NA,NA,NA,NA
"A2B7SPYBPF7H8I","Collector",1,25,"2016-06-06T15:18:36-07:00","6",1,"Stimuli/versionAstim.txt","Procedure/versionAproc.txt","Tetris",NA,"CRYPT","","CRYPT","OFF","Unrel_G_L2",29,"Study","No","3","Unrel_G_L2","ON","",3000,NA,NA,NA,NA,NA,NA,NA,NA
"A2B7SPYBPF7H8I","Collector",1,26,"2016-06-06T15:18:41-07:00","5",1,"Stimuli/versionAstim.txt","Procedure/versionAproc.txt","Tetris",NA,"FIELD","","FIELD","OFF","Unrel_G_L2",28,"Study","No","3","Unrel_G_L2","ON","",3000,NA,NA,NA,NA,NA,NA,NA,NA
"A2B7SPYBPF7H8I","Collector",1,27,"2016-06-06T15:18:47-07:00","6",1,"Stimuli/versionAstim.txt","Procedure/versionAproc.txt","Tetris",NA,"INSECT","","INSECT","OFF","Unrel_G_L2",33,"Study","No","3","Unrel_G_L2","ON","",3000,NA,NA,NA,NA,NA,NA,NA,NA
"A2B7SPYBPF7H8I","Collector",1,28,"2016-06-06T15:18:53-07:00","6",1,"Stimuli/versionAstim.txt","Procedure/versionAproc.txt","Tetris",NA,"PIPE","","PIPE","OFF","Unrel_G_L2",37,"Study","No","3","Unrel_G_L2","ON","",3000,NA,NA,NA,NA,NA,NA,NA,NA
"A2B7SPYBPF7H8I","Collector",1,29,"2016-06-06T15:18:58-07:00","5",1,"Stimuli/versionAstim.txt","Procedure/versionAproc.txt","Tetris",NA,"MAST","","MAST","OFF","Unrel_G_L2",22,"Study","No","3","Unrel_G_L2","ON","",3000,NA,NA,NA,NA,NA,NA,NA,NA
"A2B7SPYBPF7H8I","Collector",1,30,"2016-06-06T15:19:04-07:00","6",1,"Stimuli/versionAstim.txt","Procedure/versionAproc.txt","Tetris",NA,"FEAST","","FEAST","OFF","Unrel_G_L2",26,"Study","No","3","Unrel_G_L2","ON","",3000,NA,NA,NA,NA,NA,NA,NA,NA
"A2B7SPYBPF7H8I","Collector",1,31,"2016-06-06T15:19:09-07:00","5",1,"Stimuli/versionAstim.txt","Procedure/versionAproc.txt","Tetris",NA,"MANHOLE","","MANHOLE","OFF","Unrel_G_L2",41,"Study","No","3","Unrel_G_L2","ON","",3000,NA,NA,NA,NA,NA,NA,NA,NA
"A2B7SPYBPF7H8I","Collector",1,32,"2016-06-06T15:19:15-07:00","6",1,"Stimuli/versionAstim.txt","Procedure/versionAproc.txt","Tetris",NA,"SAND","","SAND","OFF","Unrel_G_L2",35,"Study","No","3","Unrel_G_L2","ON","",3000,NA,NA,NA,NA,NA,NA,NA,NA
"A2B7SPYBPF7H8I","Collector",1,33,"2016-06-06T15:19:21-07:00","6",1,"Stimuli/versionAstim.txt","Procedure/versionAproc.txt","Tetris",NA,"CONE","","CONE","OFF","Unrel_G_L2",31,"Study","No","3","Unrel_G_L2","ON","",3000,NA,NA,NA,NA,NA,NA,NA,NA
"A2B7SPYBPF7H8I","Collector",1,34,"2016-06-06T15:19:27-07:00","6",1,"Stimuli/versionAstim.txt","Procedure/versionAproc.txt","Tetris",NA,"ROD","","ROD","OFF","Unrel_G_L2",24,"Study","No","3","Unrel_G_L2","ON","",3000,NA,NA,NA,NA,NA,NA,NA,NA
"A2B7SPYBPF7H8I","Collector",1,35,"2016-06-06T15:19:33-07:00","6",1,"Stimuli/versionAstim.txt","Procedure/versionAproc.txt","Tetris",NA,"BAG","","BAG","OFF","Unrel_G_L2",32,"Study","No","3","Unrel_G_L2","ON","",3000,NA,NA,NA,NA,NA,NA,NA,NA
"A2B7SPYBPF7H8I","Collector",1,36,"2016-06-06T15:19:39-07:00","6",1,"Stimuli/versionAstim.txt","Procedure/versionAproc.txt","Tetris",NA,"SHRIMP","","SHRIMP","OFF","Unrel_G_L2",39,"Study","No","3","Unrel_G_L2","ON","",3000,NA,NA,NA,NA,NA,NA,NA,NA
"A2B7SPYBPF7H8I","Collector",1,37,"2016-06-06T15:19:45-07:00","6",1,"Stimuli/versionAstim.txt","Procedure/versionAproc.txt","Tetris",NA,"BARBELL","","BARBELL","OFF","Unrel_G_L2",36,"Study","No","3","Unrel_G_L2","ON","",3000,NA,NA,NA,NA,NA,NA,NA,NA
"A2B7SPYBPF7H8I","Collector",1,38,"2016-06-06T15:19:51-07:00","6",1,"Stimuli/versionAstim.txt","Procedure/versionAproc.txt","Tetris",NA,"RIBBON","","RIBBON","OFF","Unrel_G_L2",40,"Study","No","3","Unrel_G_L2","ON","",3000,NA,NA,NA,NA,NA,NA,NA,NA
"A2B7SPYBPF7H8I","Collector",1,39,"2016-06-06T15:19:58-07:00","7",1,"Stimuli/versionAstim.txt","Procedure/versionAproc.txt","Tetris",NA,"PYRAMID","","PYRAMID","OFF","Unrel_G_L2",25,"Study","No","3","Unrel_G_L2","ON","",3000,NA,NA,NA,NA,NA,NA,NA,NA
"A2B7SPYBPF7H8I","Collector",1,40,"2016-06-06T15:20:03-07:00","5",1,"Stimuli/versionAstim.txt","Procedure/versionAproc.txt","Tetris",NA,"CORNER","","CORNER","OFF","Unrel_G_L2",30,"Study","No","3","Unrel_G_L2","ON","",3000,NA,NA,NA,NA,NA,NA,NA,NA
"A2B7SPYBPF7H8I","Collector",1,41,"2016-06-06T15:20:09-07:00","6",1,"Stimuli/versionAstim.txt","Procedure/versionAproc.txt","Tetris",NA,"TUBE","","TUBE","OFF","Unrel_G_L2",34,"Study","No","3","Unrel_G_L2","ON","",3000,NA,NA,NA,NA,NA,NA,NA,NA
"A2B7SPYBPF7H8I","Collector",1,42,"2016-06-06T15:20:15-07:00","6",1,"Stimuli/versionAstim.txt","Procedure/versionAproc.txt","Tetris",NA,"HOOK","","HOOK","OFF","Unrel_G_L2",27,"Study","No","3","Unrel_G_L2","ON","",3000,NA,NA,NA,NA,NA,NA,NA,NA
"A2B7SPYBPF7H8I","Collector",1,43,"2016-06-06T15:20:21-07:00","6",1,"Stimuli/versionAstim.txt","Procedure/versionAproc.txt","Tetris",NA,"HARNESS","","HARNESS","OFF","Unrel_G_L2",38,"Study","No","3","Unrel_G_L2","ON","",3000,NA,NA,NA,NA,NA,NA,NA,NA
"A2B7SPYBPF7H8I","Collector",1,44,"2016-06-06T15:20:28-07:00","7",1,"Stimuli/versionAstim.txt","Procedure/versionAproc.txt","Tetris",NA,"BADGE","","BADGE","OFF","Unrel_G_L2",23,"Study","No","3","Unrel_G_L2","ON","",3000,NA,NA,NA,NA,NA,NA,NA,NA
"A2B7SPYBPF7H8I","Collector",1,45,"2016-06-06T15:20:35-07:00","7",1,"Stimuli/versionAstim.txt","Procedure/versionAproc.txt","Tetris",NA,"n/a","n/a","n/a","n/a","n/a",0,"Instruct","N/A","User","Guess Instructions: 5 words related to the list you just saw were not presented. Try to guess these words by typing them into the dialog box on the next screen. You must guess at least one.","OFF","",4320,NA,NA,NA,NA,NA,NA,NA,NA
"A2B7SPYBPF7H8I","Collector",1,46,"2016-06-06T15:21:41-07:00","66",1,"Stimuli/versionAstim.txt","Procedure/versionAproc.txt","Tetris",NA,"n/a","n/a","n/a","n/a","n/a",0,"freerecall","N/A","User","Guess Below. You must make at least one guess. Click submit when you are finished.","OFF","fishhook <br />  <br /> grave <br />  <br /> triangle <br />  <br /> pipewrench <br />  <br /> dinner <br />  <br /> ",60860,1260,58870,NA,NA,NA,NA,NA,NA
"A2B7SPYBPF7H8I","Collector",1,47,"2016-06-06T15:21:46-07:00","5",1,"Stimuli/versionAstim.txt","Procedure/versionAproc.txt","Tetris",NA,"n/a","n/a","n/a","n/a","n/a",0,"Instruct","N/A","User","Click the button below for the next list.","OFF","",2420,NA,NA,NA,NA,NA,NA,NA,NA
"A2B7SPYBPF7H8I","Collector",1,48,"2016-06-06T15:21:53-07:00","7",1,"Stimuli/versionAstim.txt","Procedure/versionAproc.txt","Tetris",NA,"APRICOT","","APRICOT","OFF","Cat_G_L3",48,"Study","No","3","Cat_G_L3","ON","",3000,NA,NA,NA,NA,NA,NA,NA,NA
"A2B7SPYBPF7H8I","Collector",1,49,"2016-06-06T15:21:59-07:00","6",1,"Stimuli/versionAstim.txt","Procedure/versionAproc.txt","Tetris",NA,"RASPBERRY","","RASPBERRY","OFF","Cat_G_L3",54,"Study","No","3","Cat_G_L3","ON","",3000,NA,NA,NA,NA,NA,NA,NA,NA
"A2B7SPYBPF7H8I","Collector",1,50,"2016-06-06T15:22:05-07:00","6",1,"Stimuli/versionAstim.txt","Procedure/versionAproc.txt","Tetris",NA,"PEAR","","PEAR","OFF","Cat_G_L3",43,"Study","No","3","Cat_G_L3","ON","",3000,NA,NA,NA,NA,NA,NA,NA,NA
"A2B7SPYBPF7H8I","Collector",1,51,"2016-06-06T15:22:11-07:00","6",1,"Stimuli/versionAstim.txt","Procedure/versionAproc.txt","Tetris",NA,"RAISIN","","RAISIN","OFF","Cat_G_L3",57,"Study","No","3","Cat_G_L3","ON","",3000,NA,NA,NA,NA,NA,NA,NA,NA
"A2B7SPYBPF7H8I","Collector",1,52,"2016-06-06T15:22:18-07:00","7",1,"Stimuli/versionAstim.txt","Procedure/versionAproc.txt","Tetris",NA,"MANGO","","MANGO","OFF","Cat_G_L3",56,"Study","No","3","Cat_G_L3","ON","",3000,NA,NA,NA,NA,NA,NA,NA,NA
"A2B7SPYBPF7H8I","Collector",1,53,"2016-06-06T15:22:24-07:00","6",1,"Stimuli/versionAstim.txt","Procedure/versionAproc.txt","Tetris",NA,"HONEYDEW","","HONEYDEW","OFF","Cat_G_L3",60,"Study","No","3","Cat_G_L3","ON","",3000,NA,NA,NA,NA,NA,NA,NA,NA
"A2B7SPYBPF7H8I","Collector",1,54,"2016-06-06T15:22:30-07:00","6",1,"Stimuli/versionAstim.txt","Procedure/versionAproc.txt","Tetris",NA,"HUCKLEBERRY","","HUCKLEBERRY","OFF","Cat_G_L3",61,"Study","No","3","Cat_G_L3","ON","",3000,NA,NA,NA,NA,NA,NA,NA,NA
"A2B7SPYBPF7H8I","Collector",1,55,"2016-06-06T15:22:36-07:00","6",1,"Stimuli/versionAstim.txt","Procedure/versionAproc.txt","Tetris",NA,"WATERMELON","","WATERMELON","OFF","Cat_G_L3",52,"Study","No","3","Cat_G_L3","ON","",3000,NA,NA,NA,NA,NA,NA,NA,NA
"A2B7SPYBPF7H8I","Collector",1,56,"2016-06-06T15:22:44-07:00","8",1,"Stimuli/versionAstim.txt","Procedure/versionAproc.txt","Tetris",NA,"PINEAPPLE","","PINEAPPLE","OFF","Cat_G_L3",49,"Study","No","3","Cat_G_L3","ON","",3000,NA,NA,NA,NA,NA,NA,NA,NA
"A2B7SPYBPF7H8I","Collector",1,57,"2016-06-06T15:22:50-07:00","6",1,"Stimuli/versionAstim.txt","Procedure/versionAproc.txt","Tetris",NA,"CANTALOUPE","","CANTALOUPE","OFF","Cat_G_L3",53,"Study","No","3","Cat_G_L3","ON","",3000,NA,NA,NA,NA,NA,NA,NA,NA
"A2B7SPYBPF7H8I","Collector",1,58,"2016-06-06T15:22:56-07:00","6",1,"Stimuli/versionAstim.txt","Procedure/versionAproc.txt","Tetris",NA,"NECTARINE","","NECTARINE","OFF","Cat_G_L3",59,"Study","No","3","Cat_G_L3","ON","",3000,NA,NA,NA,NA,NA,NA,NA,NA
"A2B7SPYBPF7H8I","Collector",1,59,"2016-06-06T15:23:02-07:00","6",1,"Stimuli/versionAstim.txt","Procedure/versionAproc.txt","Tetris",NA,"GRAPEFRUIT","","GRAPEFRUIT","OFF","Cat_G_L3",46,"Study","No","3","Cat_G_L3","ON","",3000,NA,NA,NA,NA,NA,NA,NA,NA
"A2B7SPYBPF7H8I","Collector",1,60,"2016-06-06T15:23:08-07:00","6",1,"Stimuli/versionAstim.txt","Procedure/versionAproc.txt","Tetris",NA,"STRAWBERRY","","STRAWBERRY","OFF","Cat_G_L3",51,"Study","No","3","Cat_G_L3","ON","",3000,NA,NA,NA,NA,NA,NA,NA,NA
"A2B7SPYBPF7H8I","Collector",1,61,"2016-06-06T15:23:13-07:00","5",1,"Stimuli/versionAstim.txt","Procedure/versionAproc.txt","Tetris",NA,"CHERRY","","CHERRY","OFF","Cat_G_L3",45,"Study","No","3","Cat_G_L3","ON","",3000,NA,NA,NA,NA,NA,NA,NA,NA
"A2B7SPYBPF7H8I","Collector",1,62,"2016-06-06T15:23:19-07:00","6",1,"Stimuli/versionAstim.txt","Procedure/versionAproc.txt","Tetris",NA,"TANGERINE","","TANGERINE","OFF","Cat_G_L3",47,"Study","No","3","Cat_G_L3","ON","",3000,NA,NA,NA,NA,NA,NA,NA,NA
"A2B7SPYBPF7H8I","Collector",1,63,"2016-06-06T15:23:26-07:00","7",1,"Stimuli/versionAstim.txt","Procedure/versionAproc.txt","Tetris",NA,"BLACKBERRY","","BLACKBERRY","OFF","Cat_G_L3",50,"Study","No","3","Cat_G_L3","ON","",3000,NA,NA,NA,NA,NA,NA,NA,NA
"A2B7SPYBPF7H8I","Collector",1,64,"2016-06-06T15:23:32-07:00","6",1,"Stimuli/versionAstim.txt","Procedure/versionAproc.txt","Tetris",NA,"APPLE","","APPLE","OFF","Cat_G_L3",42,"Study","No","3","Cat_G_L3","ON","",3000,NA,NA,NA,NA,NA,NA,NA,NA
"A2B7SPYBPF7H8I","Collector",1,65,"2016-06-06T15:23:37-07:00","5",1,"Stimuli/versionAstim.txt","Procedure/versionAproc.txt","Tetris",NA,"BLUEBERRY","","BLUEBERRY","OFF","Cat_G_L3",55,"Study","No","3","Cat_G_L3","ON","",3000,NA,NA,NA,NA,NA,NA,NA,NA
"A2B7SPYBPF7H8I","Collector",1,66,"2016-06-06T15:23:43-07:00","6",1,"Stimuli/versionAstim.txt","Procedure/versionAproc.txt","Tetris",NA,"COCONUT","","COCONUT","OFF","Cat_G_L3",58,"Study","No","3","Cat_G_L3","ON","",3000,NA,NA,NA,NA,NA,NA,NA,NA
"A2B7SPYBPF7H8I","Collector",1,67,"2016-06-06T15:23:49-07:00","6",1,"Stimuli/versionAstim.txt","Procedure/versionAproc.txt","Tetris",NA,"PEACH","","PEACH","OFF","Cat_G_L3",44,"Study","No","3","Cat_G_L3","ON","",3000,NA,NA,NA,NA,NA,NA,NA,NA
"A2B7SPYBPF7H8I","Collector",1,68,"2016-06-06T15:23:55-07:00","6",1,"Stimuli/versionAstim.txt","Procedure/versionAproc.txt","Tetris",NA,"n/a","n/a","n/a","n/a","n/a",0,"Instruct","N/A","User","Guess Instructions: 5 words related to the list you just saw were not presented. Try to guess these words by typing them into the dialog box on the next screen. You must guess at least one.","OFF","",3000,NA,NA,NA,NA,NA,NA,NA,NA
"A2B7SPYBPF7H8I","Collector",1,69,"2016-06-06T15:24:30-07:00","35",1,"Stimuli/versionAstim.txt","Procedure/versionAproc.txt","Tetris",NA,"n/a","n/a","n/a","n/a","n/a",0,"freerecall","N/A","User","Guess Below. You must make at least one guess. Click submit when you are finished.","OFF","fruit <br />  <br /> tree <br />  <br /> pit <br />  <br /> cherry stem <br />  <br /> orange color <br />  <br /> ",31890,1600,29510,NA,NA,NA,NA,NA,NA
"A2B7SPYBPF7H8I","Collector",1,70,"2016-06-06T15:24:37-07:00","7",1,"Stimuli/versionAstim.txt","Procedure/versionAproc.txt","Tetris",NA,"n/a","n/a","n/a","n/a","n/a",0,"Instruct","N/A","User","Click the button below for the next list.","OFF","",4070,NA,NA,NA,NA,NA,NA,NA,NA
"A2B7SPYBPF7H8I","Collector",1,71,"2016-06-06T15:24:44-07:00","7",1,"Stimuli/versionAstim.txt","Procedure/versionAproc.txt","Tetris",NA,"ROCKET","","ROCKET","OFF","AdHoc_G_L4",80,"Study","No","3","AdHoc_G_L4","ON","",3000,NA,NA,NA,NA,NA,NA,NA,NA
"A2B7SPYBPF7H8I","Collector",1,72,"2016-06-06T15:24:50-07:00","6",1,"Stimuli/versionAstim.txt","Procedure/versionAproc.txt","Tetris",NA,"TRUMPET","","TRUMPET","OFF","AdHoc_G_L4",69,"Study","No","3","AdHoc_G_L4","ON","",3000,NA,NA,NA,NA,NA,NA,NA,NA
"A2B7SPYBPF7H8I","Collector",1,73,"2016-06-06T15:24:56-07:00","6",1,"Stimuli/versionAstim.txt","Procedure/versionAproc.txt","Tetris",NA,"RADIO","","RADIO","OFF","AdHoc_G_L4",70,"Study","No","3","AdHoc_G_L4","ON","",3000,NA,NA,NA,NA,NA,NA,NA,NA
"A2B7SPYBPF7H8I","Collector",1,74,"2016-06-06T15:25:01-07:00","5",1,"Stimuli/versionAstim.txt","Procedure/versionAproc.txt","Tetris",NA,"BLENDER","","BLENDER","OFF","AdHoc_G_L4",66,"Study","No","3","AdHoc_G_L4","ON","",3000,NA,NA,NA,NA,NA,NA,NA,NA
"A2B7SPYBPF7H8I","Collector",1,75,"2016-06-06T15:25:07-07:00","6",1,"Stimuli/versionAstim.txt","Procedure/versionAproc.txt","Tetris",NA,"FIREWORKS","","FIREWORKS","OFF","AdHoc_G_L4",76,"Study","No","3","AdHoc_G_L4","ON","",3000,NA,NA,NA,NA,NA,NA,NA,NA
"A2B7SPYBPF7H8I","Collector",1,76,"2016-06-06T15:25:13-07:00","6",1,"Stimuli/versionAstim.txt","Procedure/versionAproc.txt","Tetris",NA,"YELL","","YELL","OFF","AdHoc_G_L4",63,"Study","No","3","AdHoc_G_L4","ON","",3000,NA,NA,NA,NA,NA,NA,NA,NA
"A2B7SPYBPF7H8I","Collector",1,77,"2016-06-06T15:25:19-07:00","6",1,"Stimuli/versionAstim.txt","Procedure/versionAproc.txt","Tetris",NA,"DRUMS","","DRUMS","OFF","AdHoc_G_L4",73,"Study","No","3","AdHoc_G_L4","ON","",3000,NA,NA,NA,NA,NA,NA,NA,NA
"A2B7SPYBPF7H8I","Collector",1,78,"2016-06-06T15:25:24-07:00","5",1,"Stimuli/versionAstim.txt","Procedure/versionAproc.txt","Tetris",NA,"CROWD","","CROWD","OFF","AdHoc_G_L4",74,"Study","No","3","AdHoc_G_L4","ON","",3000,NA,NA,NA,NA,NA,NA,NA,NA
"A2B7SPYBPF7H8I","Collector",1,79,"2016-06-06T15:25:30-07:00","6",1,"Stimuli/versionAstim.txt","Procedure/versionAproc.txt","Tetris",NA,"BELLS","","BELLS","OFF","AdHoc_G_L4",65,"Study","No","3","AdHoc_G_L4","ON","",3000,NA,NA,NA,NA,NA,NA,NA,NA
"A2B7SPYBPF7H8I","Collector",1,80,"2016-06-06T15:25:36-07:00","6",1,"Stimuli/versionAstim.txt","Procedure/versionAproc.txt","Tetris",NA,"PARTY","","PARTY","OFF","AdHoc_G_L4",75,"Study","No","3","AdHoc_G_L4","ON","",3000,NA,NA,NA,NA,NA,NA,NA,NA
"A2B7SPYBPF7H8I","Collector",1,81,"2016-06-06T15:25:42-07:00","6",1,"Stimuli/versionAstim.txt","Procedure/versionAproc.txt","Tetris",NA,"BOMB","","BOMB","OFF","AdHoc_G_L4",81,"Study","No","3","AdHoc_G_L4","ON","",3000,NA,NA,NA,NA,NA,NA,NA,NA
"A2B7SPYBPF7H8I","Collector",1,82,"2016-06-06T15:25:48-07:00","6",1,"Stimuli/versionAstim.txt","Procedure/versionAproc.txt","Tetris",NA,"CHAIN SAW","","CHAIN SAW","OFF","AdHoc_G_L4",67,"Study","No","3","AdHoc_G_L4","ON","",3000,NA,NA,NA,NA,NA,NA,NA,NA
"A2B7SPYBPF7H8I","Collector",1,83,"2016-06-06T15:25:53-07:00","5",1,"Stimuli/versionAstim.txt","Procedure/versionAproc.txt","Tetris",NA,"ORCHESTRA","","ORCHESTRA","OFF","AdHoc_G_L4",72,"Study","No","3","AdHoc_G_L4","ON","",3000,NA,NA,NA,NA,NA,NA,NA,NA
"A2B7SPYBPF7H8I","Collector",1,84,"2016-06-06T15:25:59-07:00","6",1,"Stimuli/versionAstim.txt","Procedure/versionAproc.txt","Tetris",NA,"TRACTOR","","TRACTOR","OFF","AdHoc_G_L4",71,"Study","No","3","AdHoc_G_L4","ON","",3000,NA,NA,NA,NA,NA,NA,NA,NA
"A2B7SPYBPF7H8I","Collector",1,85,"2016-06-06T15:26:05-07:00","6",1,"Stimuli/versionAstim.txt","Procedure/versionAproc.txt","Tetris",NA,"WHISTLE","","WHISTLE","OFF","AdHoc_G_L4",78,"Study","No","3","AdHoc_G_L4","ON","",3000,NA,NA,NA,NA,NA,NA,NA,NA
"A2B7SPYBPF7H8I","Collector",1,86,"2016-06-06T15:26:11-07:00","6",1,"Stimuli/versionAstim.txt","Procedure/versionAproc.txt","Tetris",NA,"TRAIN","","TRAIN","OFF","AdHoc_G_L4",62,"Study","No","3","AdHoc_G_L4","ON","",3000,NA,NA,NA,NA,NA,NA,NA,NA
"A2B7SPYBPF7H8I","Collector",1,87,"2016-06-06T15:26:16-07:00","5",1,"Stimuli/versionAstim.txt","Procedure/versionAproc.txt","Tetris",NA,"TRAFFIC","","TRAFFIC","OFF","AdHoc_G_L4",68,"Study","No","3","AdHoc_G_L4","ON","",3000,NA,NA,NA,NA,NA,NA,NA,NA
"A2B7SPYBPF7H8I","Collector",1,88,"2016-06-06T15:26:22-07:00","6",1,"Stimuli/versionAstim.txt","Procedure/versionAproc.txt","Tetris",NA,"STEREO","","STEREO","OFF","AdHoc_G_L4",79,"Study","No","3","AdHoc_G_L4","ON","",3000,NA,NA,NA,NA,NA,NA,NA,NA
"A2B7SPYBPF7H8I","Collector",1,89,"2016-06-06T15:26:28-07:00","6",1,"Stimuli/versionAstim.txt","Procedure/versionAproc.txt","Tetris",NA,"BABIES","","BABIES","OFF","AdHoc_G_L4",77,"Study","No","3","AdHoc_G_L4","ON","",3000,NA,NA,NA,NA,NA,NA,NA,NA
"A2B7SPYBPF7H8I","Collector",1,90,"2016-06-06T15:26:34-07:00","6",1,"Stimuli/versionAstim.txt","Procedure/versionAproc.txt","Tetris",NA,"TELEPHONE","","TELEPHONE","OFF","AdHoc_G_L4",64,"Study","No","3","AdHoc_G_L4","ON","",3000,NA,NA,NA,NA,NA,NA,NA,NA
"A2B7SPYBPF7H8I","Collector",1,91,"2016-06-06T15:26:56-07:00","22",1,"Stimuli/versionAstim.txt","Procedure/versionAproc.txt","Tetris",NA,"n/a","n/a","n/a","n/a","n/a",0,"Instruct","N/A","User","Guess Instructions: 5 words related to the list you just saw were not presented. Try to guess these words by typing them into the dialog box on the next screen. You must guess at least one.","OFF","",19370,NA,NA,NA,NA,NA,NA,NA,NA
"A2B7SPYBPF7H8I","Collector",1,92,"2016-06-06T15:28:41-07:00","105",1,"Stimuli/versionAstim.txt","Procedure/versionAproc.txt","Tetris",NA,"n/a","n/a","n/a","n/a","n/a",0,"freerecall","N/A","User","Guess Below. You must make at least one guess. Click submit when you are finished.","OFF","train tracks  <br />  <br /> whistle blower <br />  <br /> musical instrument <br />  <br /> farm tractor <br />  <br /> beach",101840,2230,99340,NA,NA,NA,NA,NA,NA
"A2B7SPYBPF7H8I","Collector",1,93,"2016-06-06T15:28:48-07:00","7",1,"Stimuli/versionAstim.txt","Procedure/versionAproc.txt","Tetris",NA,"n/a","n/a","n/a","n/a","n/a",0,"Instruct","N/A","User","Click the button below for the next list.","OFF","",4230,NA,NA,NA,NA,NA,NA,NA,NA
"A2B7SPYBPF7H8I","Collector",1,94,"2016-06-06T15:28:54-07:00","6",1,"Stimuli/versionAstim.txt","Procedure/versionAproc.txt","Tetris",NA,"DONKEY","","DONKEY","OFF","Cat_G_L5",95,"Study","No","3","Cat_G_L5","ON","",3000,NA,NA,NA,NA,NA,NA,NA,NA
"A2B7SPYBPF7H8I","Collector",1,95,"2016-06-06T15:29:00-07:00","6",1,"Stimuli/versionAstim.txt","Procedure/versionAproc.txt","Tetris",NA,"GOAT","","GOAT","OFF","Cat_G_L5",91,"Study","No","3","Cat_G_L5","ON","",3000,NA,NA,NA,NA,NA,NA,NA,NA
"A2B7SPYBPF7H8I","Collector",1,96,"2016-06-06T15:29:06-07:00","6",1,"Stimuli/versionAstim.txt","Procedure/versionAproc.txt","Tetris",NA,"LION","","LION","OFF","Cat_G_L5",84,"Study","No","3","Cat_G_L5","ON","",3000,NA,NA,NA,NA,NA,NA,NA,NA
"A2B7SPYBPF7H8I","Collector",1,97,"2016-06-06T15:29:11-07:00","5",1,"Stimuli/versionAstim.txt","Procedure/versionAproc.txt","Tetris",NA,"BULL","","BULL","OFF","Cat_G_L5",100,"Study","No","3","Cat_G_L5","ON","",3000,NA,NA,NA,NA,NA,NA,NA,NA
"A2B7SPYBPF7H8I","Collector",1,98,"2016-06-06T15:29:17-07:00","6",1,"Stimuli/versionAstim.txt","Procedure/versionAproc.txt","Tetris",NA,"DOG","","DOG","OFF","Cat_G_L5",82,"Study","No","3","Cat_G_L5","ON","",3000,NA,NA,NA,NA,NA,NA,NA,NA
"A2B7SPYBPF7H8I","Collector",1,99,"2016-06-06T15:29:23-07:00","6",1,"Stimuli/versionAstim.txt","Procedure/versionAproc.txt","Tetris",NA,"ELEPHANT","","ELEPHANT","OFF","Cat_G_L5",85,"Study","No","3","Cat_G_L5","ON","",3000,NA,NA,NA,NA,NA,NA,NA,NA
"A2B7SPYBPF7H8I","Collector",1,100,"2016-06-06T15:29:28-07:00","5",1,"Stimuli/versionAstim.txt","Procedure/versionAproc.txt","Tetris",NA,"WOLF","","WOLF","OFF","Cat_G_L5",94,"Study","No","3","Cat_G_L5","ON","",3000,NA,NA,NA,NA,NA,NA,NA,NA
"A2B7SPYBPF7H8I","Collector",1,101,"2016-06-06T15:29:34-07:00","6",1,"Stimuli/versionAstim.txt","Procedure/versionAproc.txt","Tetris",NA,"DEER","","DEER","OFF","Cat_G_L5",88,"Study","No","3","Cat_G_L5","ON","",3000,NA,NA,NA,NA,NA,NA,NA,NA
"A2B7SPYBPF7H8I","Collector",1,102,"2016-06-06T15:29:39-07:00","5",1,"Stimuli/versionAstim.txt","Procedure/versionAproc.txt","Tetris",NA,"BEAR","","BEAR","OFF","Cat_G_L5",86,"Study","No","3","Cat_G_L5","ON","",3000,NA,NA,NA,NA,NA,NA,NA,NA
"A2B7SPYBPF7H8I","Collector",1,103,"2016-06-06T15:29:44-07:00","5",1,"Stimuli/versionAstim.txt","Procedure/versionAproc.txt","Tetris",NA,"BUFFALO","","BUFFALO","OFF","Cat_G_L5",101,"Study","No","3","Cat_G_L5","ON","",3000,NA,NA,NA,NA,NA,NA,NA,NA
"A2B7SPYBPF7H8I","Collector",1,104,"2016-06-06T15:29:50-07:00","6",1,"Stimuli/versionAstim.txt","Procedure/versionAproc.txt","Tetris",NA,"SHEEP","","SHEEP","OFF","Cat_G_L5",89,"Study","No","3","Cat_G_L5","ON","",3000,NA,NA,NA,NA,NA,NA,NA,NA
"A2B7SPYBPF7H8I","Collector",1,105,"2016-06-06T15:29:55-07:00","5",1,"Stimuli/versionAstim.txt","Procedure/versionAproc.txt","Tetris",NA,"RABBIT","","RABBIT","OFF","Cat_G_L5",96,"Study","No","3","Cat_G_L5","ON","",3000,NA,NA,NA,NA,NA,NA,NA,NA
"A2B7SPYBPF7H8I","Collector",1,106,"2016-06-06T15:30:01-07:00","6",1,"Stimuli/versionAstim.txt","Procedure/versionAproc.txt","Tetris",NA,"ZEBRA","","ZEBRA","OFF","Cat_G_L5",92,"Study","No","3","Cat_G_L5","ON","",3000,NA,NA,NA,NA,NA,NA,NA,NA
"A2B7SPYBPF7H8I","Collector",1,107,"2016-06-06T15:30:07-07:00","6",1,"Stimuli/versionAstim.txt","Procedure/versionAproc.txt","Tetris",NA,"LEOPARD","","LEOPARD","OFF","Cat_G_L5",97,"Study","No","3","Cat_G_L5","ON","",3000,NA,NA,NA,NA,NA,NA,NA,NA
"A2B7SPYBPF7H8I","Collector",1,108,"2016-06-06T15:30:15-07:00","8",1,"Stimuli/versionAstim.txt","Procedure/versionAproc.txt","Tetris",NA,"RAT","","RAT","OFF","Cat_G_L5",87,"Study","No","3","Cat_G_L5","ON","",3000,NA,NA,NA,NA,NA,NA,NA,NA
"A2B7SPYBPF7H8I","Collector",1,109,"2016-06-06T15:30:21-07:00","6",1,"Stimuli/versionAstim.txt","Procedure/versionAproc.txt","Tetris",NA,"SQUIRREL","","SQUIRREL","OFF","Cat_G_L5",93,"Study","No","3","Cat_G_L5","ON","",3000,NA,NA,NA,NA,NA,NA,NA,NA
"A2B7SPYBPF7H8I","Collector",1,110,"2016-06-06T15:30:26-07:00","5",1,"Stimuli/versionAstim.txt","Procedure/versionAproc.txt","Tetris",NA,"GIRAFFE","","GIRAFFE","OFF","Cat_G_L5",90,"Study","No","3","Cat_G_L5","ON","",3000,NA,NA,NA,NA,NA,NA,NA,NA
"A2B7SPYBPF7H8I","Collector",1,111,"2016-06-06T15:30:32-07:00","6",1,"Stimuli/versionAstim.txt","Procedure/versionAproc.txt","Tetris",NA,"MULE","","MULE","OFF","Cat_G_L5",98,"Study","No","3","Cat_G_L5","ON","",3000,NA,NA,NA,NA,NA,NA,NA,NA
"A2B7SPYBPF7H8I","Collector",1,112,"2016-06-06T15:30:37-07:00","5",1,"Stimuli/versionAstim.txt","Procedure/versionAproc.txt","Tetris",NA,"FOX","","FOX","OFF","Cat_G_L5",99,"Study","No","3","Cat_G_L5","ON","",3000,NA,NA,NA,NA,NA,NA,NA,NA
"A2B7SPYBPF7H8I","Collector",1,113,"2016-06-06T15:30:43-07:00","6",1,"Stimuli/versionAstim.txt","Procedure/versionAproc.txt","Tetris",NA,"HORSE","","HORSE","OFF","Cat_G_L5",83,"Study","No","3","Cat_G_L5","ON","",3000,NA,NA,NA,NA,NA,NA,NA,NA
"A2B7SPYBPF7H8I","Collector",1,114,"2016-06-06T15:30:49-07:00","6",1,"Stimuli/versionAstim.txt","Procedure/versionAproc.txt","Tetris",NA,"n/a","n/a","n/a","n/a","n/a",0,"Instruct","N/A","User","Guess Instructions: 5 words related to the list you just saw were not presented. Try to guess these words by typing them into the dialog box on the next screen. You must guess at least one.","OFF","",2580,NA,NA,NA,NA,NA,NA,NA,NA
"A2B7SPYBPF7H8I","Collector",1,115,"2016-06-06T15:31:34-07:00","45",1,"Stimuli/versionAstim.txt","Procedure/versionAproc.txt","Tetris",NA,"n/a","n/a","n/a","n/a","n/a",0,"freerecall","N/A","User","Guess Below. You must make at least one guess. Click submit when you are finished.","OFF","oats <br />  <br /> bullhorn <br />  <br /> black stripes <br />  <br /> puppy <br />  <br /> tiger",41660,1480,38930,NA,NA,NA,NA,NA,NA
"A2B7SPYBPF7H8I","Collector",1,116,"2016-06-06T15:31:45-07:00","11",1,"Stimuli/versionAstim.txt","Procedure/versionAproc.txt","Tetris",NA,"n/a","n/a","n/a","n/a","n/a",0,"Instruct","N/A","User","Click the button below for the next list.","OFF","",6340,NA,NA,NA,NA,NA,NA,NA,NA
"A2B7SPYBPF7H8I","Collector",1,117,"2016-06-06T15:31:50-07:00","5",1,"Stimuli/versionAstim.txt","Procedure/versionAproc.txt","Tetris",NA,"CROSS","","CROSS","OFF","Unrel_G_L6",106,"Study","No","3","Unrel_G_L6","ON","",3000,NA,NA,NA,NA,NA,NA,NA,NA
"A2B7SPYBPF7H8I","Collector",1,118,"2016-06-06T15:31:56-07:00","6",1,"Stimuli/versionAstim.txt","Procedure/versionAproc.txt","Tetris",NA,"HAMSTER","","HAMSTER","OFF","Unrel_G_L6",108,"Study","No","3","Unrel_G_L6","ON","",3000,NA,NA,NA,NA,NA,NA,NA,NA
"A2B7SPYBPF7H8I","Collector",1,119,"2016-06-06T15:32:02-07:00","6",1,"Stimuli/versionAstim.txt","Procedure/versionAproc.txt","Tetris",NA,"POISON","","POISON","OFF","Unrel_G_L6",111,"Study","No","3","Unrel_G_L6","ON","",3000,NA,NA,NA,NA,NA,NA,NA,NA
"A2B7SPYBPF7H8I","Collector",1,120,"2016-06-06T15:32:08-07:00","6",1,"Stimuli/versionAstim.txt","Procedure/versionAproc.txt","Tetris",NA,"DRIFT","","DRIFT","OFF","Unrel_G_L6",120,"Study","No","3","Unrel_G_L6","ON","",3000,NA,NA,NA,NA,NA,NA,NA,NA
"A2B7SPYBPF7H8I","Collector",1,121,"2016-06-06T15:32:13-07:00","5",1,"Stimuli/versionAstim.txt","Procedure/versionAproc.txt","Tetris",NA,"ENGINE","","ENGINE","OFF","Unrel_G_L6",113,"Study","No","3","Unrel_G_L6","ON","",3000,NA,NA,NA,NA,NA,NA,NA,NA
"A2B7SPYBPF7H8I","Collector",1,122,"2016-06-06T15:32:19-07:00","6",1,"Stimuli/versionAstim.txt","Procedure/versionAproc.txt","Tetris",NA,"SUNRISE","","SUNRISE","OFF","Unrel_G_L6",121,"Study","No","3","Unrel_G_L6","ON","",3000,NA,NA,NA,NA,NA,NA,NA,NA
"A2B7SPYBPF7H8I","Collector",1,123,"2016-06-06T15:32:24-07:00","5",1,"Stimuli/versionAstim.txt","Procedure/versionAproc.txt","Tetris",NA,"CAKE","","CAKE","OFF","Unrel_G_L6",105,"Study","No","3","Unrel_G_L6","ON","",3000,NA,NA,NA,NA,NA,NA,NA,NA
"A2B7SPYBPF7H8I","Collector",1,124,"2016-06-06T15:32:30-07:00","6",1,"Stimuli/versionAstim.txt","Procedure/versionAproc.txt","Tetris",NA,"GRAVY","","GRAVY","OFF","Unrel_G_L6",102,"Study","No","3","Unrel_G_L6","ON","",3000,NA,NA,NA,NA,NA,NA,NA,NA
"A2B7SPYBPF7H8I","Collector",1,125,"2016-06-06T15:32:37-07:00","7",1,"Stimuli/versionAstim.txt","Procedure/versionAproc.txt","Tetris",NA,"COUSIN","","COUSIN","OFF","Unrel_G_L6",104,"Study","No","3","Unrel_G_L6","ON","",3000,NA,NA,NA,NA,NA,NA,NA,NA
"A2B7SPYBPF7H8I","Collector",1,126,"2016-06-06T15:32:44-07:00","7",1,"Stimuli/versionAstim.txt","Procedure/versionAproc.txt","Tetris",NA,"CROWN","","CROWN","OFF","Unrel_G_L6",116,"Study","No","3","Unrel_G_L6","ON","",3000,NA,NA,NA,NA,NA,NA,NA,NA
"A2B7SPYBPF7H8I","Collector",1,127,"2016-06-06T15:32:49-07:00","5",1,"Stimuli/versionAstim.txt","Procedure/versionAproc.txt","Tetris",NA,"PILOT","","PILOT","OFF","Unrel_G_L6",112,"Study","No","3","Unrel_G_L6","ON","",3000,NA,NA,NA,NA,NA,NA,NA,NA
"A2B7SPYBPF7H8I","Collector",1,128,"2016-06-06T15:32:55-07:00","6",1,"Stimuli/versionAstim.txt","Procedure/versionAproc.txt","Tetris",NA,"CAPSULE","","CAPSULE","OFF","Unrel_G_L6",118,"Study","No","3","Unrel_G_L6","ON","",3000,NA,NA,NA,NA,NA,NA,NA,NA
"A2B7SPYBPF7H8I","Collector",1,129,"2016-06-06T15:33:01-07:00","6",1,"Stimuli/versionAstim.txt","Procedure/versionAproc.txt","Tetris",NA,"MOVIE","","MOVIE","OFF","Unrel_G_L6",117,"Study","No","3","Unrel_G_L6","ON","",3000,NA,NA,NA,NA,NA,NA,NA,NA
"A2B7SPYBPF7H8I","Collector",1,130,"2016-06-06T15:33:06-07:00","5",1,"Stimuli/versionAstim.txt","Procedure/versionAproc.txt","Tetris",NA,"BEDROOM","","BEDROOM","OFF","Unrel_G_L6",110,"Study","No","3","Unrel_G_L6","ON","",3000,NA,NA,NA,NA,NA,NA,NA,NA
"A2B7SPYBPF7H8I","Collector",1,131,"2016-06-06T15:33:11-07:00","5",1,"Stimuli/versionAstim.txt","Procedure/versionAproc.txt","Tetris",NA,"STADIUM","","STADIUM","OFF","Unrel_G_L6",107,"Study","No","3","Unrel_G_L6","ON","",3000,NA,NA,NA,NA,NA,NA,NA,NA
"A2B7SPYBPF7H8I","Collector",1,132,"2016-06-06T15:33:17-07:00","6",1,"Stimuli/versionAstim.txt","Procedure/versionAproc.txt","Tetris",NA,"EARTH","","EARTH","OFF","Unrel_G_L6",114,"Study","No","3","Unrel_G_L6","ON","",3000,NA,NA,NA,NA,NA,NA,NA,NA
"A2B7SPYBPF7H8I","Collector",1,133,"2016-06-06T15:33:22-07:00","5",1,"Stimuli/versionAstim.txt","Procedure/versionAproc.txt","Tetris",NA,"SHORE","","SHORE","OFF","Unrel_G_L6",115,"Study","No","3","Unrel_G_L6","ON","",3000,NA,NA,NA,NA,NA,NA,NA,NA
"A2B7SPYBPF7H8I","Collector",1,134,"2016-06-06T15:33:28-07:00","6",1,"Stimuli/versionAstim.txt","Procedure/versionAproc.txt","Tetris",NA,"CLOCK","","CLOCK","OFF","Unrel_G_L6",103,"Study","No","3","Unrel_G_L6","ON","",3000,NA,NA,NA,NA,NA,NA,NA,NA
"A2B7SPYBPF7H8I","Collector",1,135,"2016-06-06T15:33:33-07:00","5",1,"Stimuli/versionAstim.txt","Procedure/versionAproc.txt","Tetris",NA,"FATHER","","FATHER","OFF","Unrel_G_L6",109,"Study","No","3","Unrel_G_L6","ON","",3000,NA,NA,NA,NA,NA,NA,NA,NA
"A2B7SPYBPF7H8I","Collector",1,136,"2016-06-06T15:33:40-07:00","7",1,"Stimuli/versionAstim.txt","Procedure/versionAproc.txt","Tetris",NA,"DECK","","DECK","OFF","Unrel_G_L6",119,"Study","No","3","Unrel_G_L6","ON","",3000,NA,NA,NA,NA,NA,NA,NA,NA
"A2B7SPYBPF7H8I","Collector",1,137,"2016-06-06T15:33:50-07:00","10",1,"Stimuli/versionAstim.txt","Procedure/versionAproc.txt","Tetris",NA,"n/a","n/a","n/a","n/a","n/a",0,"Instruct","N/A","User","Guess Instructions: 5 words related to the list you just saw were not presented. Try to guess these words by typing them into the dialog box on the next screen. You must guess at least one.","OFF","",6160,NA,NA,NA,NA,NA,NA,NA,NA
"A2B7SPYBPF7H8I","Collector",1,138,"2016-06-06T15:34:26-07:00","36",1,"Stimuli/versionAstim.txt","Procedure/versionAproc.txt","Tetris",NA,"n/a","n/a","n/a","n/a","n/a",0,"freerecall","N/A","User","Guess Below. You must make at least one guess. Click submit when you are finished.","OFF","King <br />  <br /> plane <br />  <br /> bed <br />  <br /> Jesus <br />  <br /> beach",32610,1980,30230,NA,NA,NA,NA,NA,NA
"A2B7SPYBPF7H8I","Collector",1,139,"2016-06-06T15:34:43-07:00","17",1,"Stimuli/versionAstim.txt","Procedure/versionAproc.txt","Tetris",NA,"n/a","n/a","n/a","n/a","n/a",0,"Instruct","N/A","User","Now you will complete a recognition memory test based on the last 6 lists that you have studied. A word will be displayed on the computer screen and you are to decide whether the word was studied in the last 6 lists. If the word was studied, click the yes button. If the word was not studied, click the no button. Respond as quickly as possible without compromising accuracy.","OFF","",14990,NA,NA,NA,NA,NA,NA,NA,NA
"A2B7SPYBPF7H8I","Collector",1,140,"2016-06-06T15:34:49-07:00","6",1,"Stimuli/versionAstim.txt","Procedure/versionAproc.txt","Tetris",NA,"n/a","n/a","n/a","n/a","n/a",0,"Instruct","N/A","User","Click the button below to begin the test.","OFF","",1940,NA,NA,NA,NA,NA,NA,NA,NA
"A2B7SPYBPF7H8I","Collector",1,141,"2016-06-06T15:34:53-07:00","4",1,"Stimuli/versionAstim.txt","Procedure/versionAproc.txt","Tetris",NA,"SAWHORSE","","SAWHORSE","OFF","NPLI_Cat_G",265,"seqrec","No","User","RGN Test","ON","No",1500,NA,NA,NA,NA,NA,NA,NA,NA
"A2B7SPYBPF7H8I","Collector",1,142,"2016-06-06T15:34:58-07:00","5",1,"Stimuli/versionAstim.txt","Procedure/versionAproc.txt","Tetris",NA,"BROCCOLI","","BROCCOLI","OFF","CI_AdHoc_G",185,"seqrec","No","User","RGN Test","ON","No",1050,NA,NA,NA,NA,NA,NA,NA,NA
"A2B7SPYBPF7H8I","Collector",1,143,"2016-06-06T15:35:02-07:00","4",1,"Stimuli/versionAstim.txt","Procedure/versionAproc.txt","Tetris",NA,"LAWNMOWER","","LAWNMOWER","OFF","CI_AdHoc_G",200,"seqrec","No","User","RGN Test","ON","No",980,NA,NA,NA,NA,NA,NA,NA,NA
"A2B7SPYBPF7H8I","Collector",1,144,"2016-06-06T15:35:12-07:00","10",1,"Stimuli/versionAstim.txt","Procedure/versionAproc.txt","Tetris",NA,"FIRE","","FIRE","OFF","NPLI_Unrel_G",251,"seqrec","No","User","RGN Test","ON","No",5390,NA,NA,NA,NA,NA,NA,NA,NA
"A2B7SPYBPF7H8I","Collector",1,145,"2016-06-06T15:35:18-07:00","6",1,"Stimuli/versionAstim.txt","Procedure/versionAproc.txt","Tetris",NA,"TOMATO","","TOMATO","OFF","NPCI_Cat_G",279,"seqrec","No","User","RGN Test","ON","No",1390,NA,NA,NA,NA,NA,NA,NA,NA
"A2B7SPYBPF7H8I","Collector",1,146,"2016-06-06T15:35:23-07:00","5",1,"Stimuli/versionAstim.txt","Procedure/versionAproc.txt","Tetris",NA,"POISON","","POISON","OFF","LI_Unrel_G",176,"seqrec","No","User","RGN Test","ON","Yes",2070,NA,NA,NA,NA,NA,NA,NA,NA
"A2B7SPYBPF7H8I","Collector",1,147,"2016-06-06T15:35:29-07:00","6",1,"Stimuli/versionAstim.txt","Procedure/versionAproc.txt","Tetris",NA,"CROW","","CROW","OFF","NPCI_AdHoc_G",296,"seqrec","No","User","RGN Test","ON","No",1820,NA,NA,NA,NA,NA,NA,NA,NA
"A2B7SPYBPF7H8I","Collector",1,148,"2016-06-06T15:35:33-07:00","4",1,"Stimuli/versionAstim.txt","Procedure/versionAproc.txt","Tetris",NA,"THUNDER","","THUNDER","OFF","CI_AdHoc_G",201,"seqrec","No","User","RGN Test","ON","No",710,NA,NA,NA,NA,NA,NA,NA,NA
"A2B7SPYBPF7H8I","Collector",1,149,"2016-06-06T15:35:44-07:00","11",1,"Stimuli/versionAstim.txt","Procedure/versionAproc.txt","Tetris",NA,"STRAWBERRY","","STRAWBERRY","OFF","LI_Cat_G",146,"seqrec","No","User","RGN Test","ON","Yes",7610,NA,NA,NA,NA,NA,NA,NA,NA
"A2B7SPYBPF7H8I","Collector",1,150,"2016-06-06T15:35:50-07:00","6",1,"Stimuli/versionAstim.txt","Procedure/versionAproc.txt","Tetris",NA,"LEVEL","","LEVEL","OFF","NPLI_Cat_G",262,"seqrec","No","User","RGN Test","ON","No",2000,NA,NA,NA,NA,NA,NA,NA,NA
"A2B7SPYBPF7H8I","Collector",1,151,"2016-06-06T15:35:57-07:00","7",1,"Stimuli/versionAstim.txt","Procedure/versionAproc.txt","Tetris",NA,"GRASS","","GRASS","OFF","CI_AdHoc_G",182,"seqrec","No","User","RGN Test","ON","Yes",3500,NA,NA,NA,NA,NA,NA,NA,NA
"A2B7SPYBPF7H8I","Collector",1,152,"2016-06-06T15:36:01-07:00","4",1,"Stimuli/versionAstim.txt","Procedure/versionAproc.txt","Tetris",NA,"LIMA BEANS","","LIMA BEANS","OFF","NPLI_Cat_G",226,"seqrec","No","User","RGN Test","ON","No",1450,NA,NA,NA,NA,NA,NA,NA,NA
"A2B7SPYBPF7H8I","Collector",1,153,"2016-06-06T15:36:05-07:00","4",1,"Stimuli/versionAstim.txt","Procedure/versionAproc.txt","Tetris",NA,"DOME","","DOME","OFF","NPLI_Unrel_G",235,"seqrec","No","User","RGN Test","ON","No",940,NA,NA,NA,NA,NA,NA,NA,NA
"A2B7SPYBPF7H8I","Collector",1,154,"2016-06-06T15:36:13-07:00","8",1,"Stimuli/versionAstim.txt","Procedure/versionAproc.txt","Tetris",NA,"GHOUL","","GHOUL","OFF","NPLI_Unrel_G",233,"seqrec","No","User","RGN Test","ON","No",4920,NA,NA,NA,NA,NA,NA,NA,NA
"A2B7SPYBPF7H8I","Collector",1,155,"2016-06-06T15:36:16-07:00","3",1,"Stimuli/versionAstim.txt","Procedure/versionAproc.txt","Tetris",NA,"HOOK","","HOOK","OFF","LI_Unrel_G",134,"seqrec","No","User","RGN Test","ON","Yes",1470,NA,NA,NA,NA,NA,NA,NA,NA
"A2B7SPYBPF7H8I","Collector",1,156,"2016-06-06T15:36:21-07:00","5",1,"Stimuli/versionAstim.txt","Procedure/versionAproc.txt","Tetris",NA,"TIGER","","TIGER","OFF","CI_Cat_G",204,"seqrec","No","User","RGN Test","ON","No",1960,NA,NA,NA,NA,NA,NA,NA,NA
"A2B7SPYBPF7H8I","Collector",1,157,"2016-06-06T15:36:25-07:00","4",1,"Stimuli/versionAstim.txt","Procedure/versionAproc.txt","Tetris",NA,"WRENCH","","WRENCH","OFF","NPLI_Cat_G",263,"seqrec","No","User","RGN Test","ON","Yes",810,NA,NA,NA,NA,NA,NA,NA,NA
"A2B7SPYBPF7H8I","Collector",1,158,"2016-06-06T15:36:30-07:00","5",1,"Stimuli/versionAstim.txt","Procedure/versionAproc.txt","Tetris",NA,"ORANGE","","ORANGE","OFF","CI_Cat_G",192,"seqrec","No","User","RGN Test","ON","No",2360,NA,NA,NA,NA,NA,NA,NA,NA
"A2B7SPYBPF7H8I","Collector",1,159,"2016-06-06T15:36:36-07:00","6",1,"Stimuli/versionAstim.txt","Procedure/versionAproc.txt","Tetris",NA,"PARTY","","PARTY","OFF","LI_AdHoc_G",158,"seqrec","No","User","RGN Test","ON","Yes",3140,NA,NA,NA,NA,NA,NA,NA,NA
"A2B7SPYBPF7H8I","Collector",1,160,"2016-06-06T15:36:40-07:00","4",1,"Stimuli/versionAstim.txt","Procedure/versionAproc.txt","Tetris",NA,"HOT CHOCOLATE","","HOT CHOCOLATE","OFF","NPLI_AdHoc_G",216,"seqrec","No","User","RGN Test","ON","No",1360,NA,NA,NA,NA,NA,NA,NA,NA
"A2B7SPYBPF7H8I","Collector",1,161,"2016-06-06T15:36:44-07:00","4",1,"Stimuli/versionAstim.txt","Procedure/versionAproc.txt","Tetris",NA,"WITCH","","WITCH","OFF","NPLI_AdHoc_G",255,"seqrec","No","User","RGN Test","ON","No",960,NA,NA,NA,NA,NA,NA,NA,NA
"A2B7SPYBPF7H8I","Collector",1,162,"2016-06-06T15:36:48-07:00","4",1,"Stimuli/versionAstim.txt","Procedure/versionAproc.txt","Tetris",NA,"RAISIN","","RAISIN","OFF","LI_Cat_G",149,"seqrec","No","User","RGN Test","ON","Yes",1540,NA,NA,NA,NA,NA,NA,NA,NA
"A2B7SPYBPF7H8I","Collector",1,163,"2016-06-06T15:36:52-07:00","4",1,"Stimuli/versionAstim.txt","Procedure/versionAproc.txt","Tetris",NA,"BOMB","","BOMB","OFF","LI_AdHoc_G",161,"seqrec","No","User","RGN Test","ON","Yes",1000,NA,NA,NA,NA,NA,NA,NA,NA
"A2B7SPYBPF7H8I","Collector",1,164,"2016-06-06T15:36:57-07:00","5",1,"Stimuli/versionAstim.txt","Procedure/versionAproc.txt","Tetris",NA,"EGGPLANT","","EGGPLANT","OFF","NPLI_Cat_G",231,"seqrec","No","User","RGN Test","ON","Yes",1210,NA,NA,NA,NA,NA,NA,NA,NA
"A2B7SPYBPF7H8I","Collector",1,165,"2016-06-06T15:37:02-07:00","5",1,"Stimuli/versionAstim.txt","Procedure/versionAproc.txt","Tetris",NA,"SHADOW","","SHADOW","OFF","NPLI_AdHoc_G",260,"seqrec","No","User","RGN Test","ON","No",1470,NA,NA,NA,NA,NA,NA,NA,NA
"A2B7SPYBPF7H8I","Collector",1,166,"2016-06-06T15:37:06-07:00","4",1,"Stimuli/versionAstim.txt","Procedure/versionAproc.txt","Tetris",NA,"SCREWDRIVER","","SCREWDRIVER","OFF","NPCI_Cat_G",298,"seqrec","No","User","RGN Test","ON","No",1070,NA,NA,NA,NA,NA,NA,NA,NA
"A2B7SPYBPF7H8I","Collector",1,167,"2016-06-06T15:37:10-07:00","4",1,"Stimuli/versionAstim.txt","Procedure/versionAproc.txt","Tetris",NA,"CONE","","CONE","OFF","LI_Unrel_G",136,"seqrec","No","User","RGN Test","ON","Yes",1520,NA,NA,NA,NA,NA,NA,NA,NA
"A2B7SPYBPF7H8I","Collector",1,168,"2016-06-06T15:37:16-07:00","6",1,"Stimuli/versionAstim.txt","Procedure/versionAproc.txt","Tetris",NA,"AIRPORT","","AIRPORT","OFF","NPLI_Unrel_G",247,"seqrec","No","User","RGN Test","ON","No",2400,NA,NA,NA,NA,NA,NA,NA,NA
"A2B7SPYBPF7H8I","Collector",1,169,"2016-06-06T15:37:20-07:00","4",1,"Stimuli/versionAstim.txt","Procedure/versionAproc.txt","Tetris",NA,"COFFEE","","COFFEE","OFF","NPCI_AdHoc_G",272,"seqrec","No","User","RGN Test","ON","No",940,NA,NA,NA,NA,NA,NA,NA,NA
"A2B7SPYBPF7H8I","Collector",1,170,"2016-06-06T15:37:25-07:00","5",1,"Stimuli/versionAstim.txt","Procedure/versionAproc.txt","Tetris",NA,"PINEAPPLE","","PINEAPPLE","OFF","LI_Cat_G",145,"seqrec","No","User","RGN Test","ON","Yes",1460,NA,NA,NA,NA,NA,NA,NA,NA
"A2B7SPYBPF7H8I","Collector",1,171,"2016-06-06T15:37:29-07:00","4",1,"Stimuli/versionAstim.txt","Procedure/versionAproc.txt","Tetris",NA,"OBSIDIAN","","OBSIDIAN","OFF","NPLI_AdHoc_G",259,"seqrec","No","User","RGN Test","ON","No",1300,NA,NA,NA,NA,NA,NA,NA,NA
"A2B7SPYBPF7H8I","Collector",1,172,"2016-06-06T15:37:33-07:00","4",1,"Stimuli/versionAstim.txt","Procedure/versionAproc.txt","Tetris",NA,"NIGHT","","NIGHT","OFF","NPCI_AdHoc_G",293,"seqrec","No","User","RGN Test","ON","No",970,NA,NA,NA,NA,NA,NA,NA,NA
"A2B7SPYBPF7H8I","Collector",1,173,"2016-06-06T15:37:37-07:00","4",1,"Stimuli/versionAstim.txt","Procedure/versionAproc.txt","Tetris",NA,"SCREWS","","SCREWS","OFF","NPLI_Cat_G",264,"seqrec","No","User","RGN Test","ON","No",710,NA,NA,NA,NA,NA,NA,NA,NA
"A2B7SPYBPF7H8I","Collector",1,174,"2016-06-06T15:37:43-07:00","6",1,"Stimuli/versionAstim.txt","Procedure/versionAproc.txt","Tetris",NA,"BAT","","BAT","OFF","NPCI_AdHoc_G",294,"seqrec","No","User","RGN Test","ON","Yes",2170,NA,NA,NA,NA,NA,NA,NA,NA
"A2B7SPYBPF7H8I","Collector",1,175,"2016-06-06T15:37:48-07:00","5",1,"Stimuli/versionAstim.txt","Procedure/versionAproc.txt","Tetris",NA,"CARROT","","CARROT","OFF","NPCI_Cat_G",281,"seqrec","No","User","RGN Test","ON","Yes",950,NA,NA,NA,NA,NA,NA,NA,NA
"A2B7SPYBPF7H8I","Collector",1,176,"2016-06-06T15:37:54-07:00","6",1,"Stimuli/versionAstim.txt","Procedure/versionAproc.txt","Tetris",NA,"SPINACH","","SPINACH","OFF","NPCI_Cat_G",280,"seqrec","No","User","RGN Test","ON","Yes",2370,NA,NA,NA,NA,NA,NA,NA,NA
"A2B7SPYBPF7H8I","Collector",1,177,"2016-06-06T15:38:00-07:00","6",1,"Stimuli/versionAstim.txt","Procedure/versionAproc.txt","Tetris",NA,"GASOLINE","","GASOLINE","OFF","NPLI_AdHoc_G",219,"seqrec","No","User","RGN Test","ON","No",2020,NA,NA,NA,NA,NA,NA,NA,NA
"A2B7SPYBPF7H8I","Collector",1,178,"2016-06-06T15:38:04-07:00","4",1,"Stimuli/versionAstim.txt","Procedure/versionAproc.txt","Tetris",NA,"DRUMS","","DRUMS","OFF","LI_AdHoc_G",157,"seqrec","No","User","RGN Test","ON","Yes",1740,NA,NA,NA,NA,NA,NA,NA,NA
"A2B7SPYBPF7H8I","Collector",1,179,"2016-06-06T15:38:11-07:00","7",1,"Stimuli/versionAstim.txt","Procedure/versionAproc.txt","Tetris",NA,"GRAPE","","GRAPE","OFF","CI_Cat_G",194,"seqrec","No","User","RGN Test","ON","Yes",2210,NA,NA,NA,NA,NA,NA,NA,NA
"A2B7SPYBPF7H8I","Collector",1,180,"2016-06-06T15:38:16-07:00","5",1,"Stimuli/versionAstim.txt","Procedure/versionAproc.txt","Tetris",NA,"HINGE","","HINGE","OFF","NPLI_Cat_G",271,"seqrec","No","User","RGN Test","ON","No",2390,NA,NA,NA,NA,NA,NA,NA,NA
"A2B7SPYBPF7H8I","Collector",1,181,"2016-06-06T15:38:21-07:00","5",1,"Stimuli/versionAstim.txt","Procedure/versionAproc.txt","Tetris",NA,"DECK","","DECK","OFF","LI_Unrel_G",180,"seqrec","No","User","RGN Test","ON","No",1960,NA,NA,NA,NA,NA,NA,NA,NA
"A2B7SPYBPF7H8I","Collector",1,182,"2016-06-06T15:38:26-07:00","5",1,"Stimuli/versionAstim.txt","Procedure/versionAproc.txt","Tetris",NA,"PUCK","","PUCK","OFF","NPLI_AdHoc_G",252,"seqrec","No","User","RGN Test","ON","No",2240,NA,NA,NA,NA,NA,NA,NA,NA
"A2B7SPYBPF7H8I","Collector",1,183,"2016-06-06T15:38:32-07:00","6",1,"Stimuli/versionAstim.txt","Procedure/versionAproc.txt","Tetris",NA,"COW","","COW","OFF","CI_Cat_G",203,"seqrec","No","User","RGN Test","ON","No",2460,NA,NA,NA,NA,NA,NA,NA,NA
"A2B7SPYBPF7H8I","Collector",1,184,"2016-06-06T15:38:40-07:00","8",1,"Stimuli/versionAstim.txt","Procedure/versionAproc.txt","Tetris",NA,"MALE","","MALE","OFF","NPLI_Unrel_G",248,"seqrec","No","User","RGN Test","ON","No",4690,NA,NA,NA,NA,NA,NA,NA,NA
"A2B7SPYBPF7H8I","Collector",1,185,"2016-06-06T15:38:46-07:00","6",1,"Stimuli/versionAstim.txt","Procedure/versionAproc.txt","Tetris",NA,"TRUMPET","","TRUMPET","OFF","LI_AdHoc_G",155,"seqrec","No","User","RGN Test","ON","Yes",1610,NA,NA,NA,NA,NA,NA,NA,NA
"A2B7SPYBPF7H8I","Collector",1,186,"2016-06-06T15:38:51-07:00","5",1,"Stimuli/versionAstim.txt","Procedure/versionAproc.txt","Tetris",NA,"RAINBOW","","RAINBOW","OFF","NPLI_Unrel_G",243,"seqrec","No","User","RGN Test","ON","No",2150,NA,NA,NA,NA,NA,NA,NA,NA
"A2B7SPYBPF7H8I","Collector",1,187,"2016-06-06T15:38:58-07:00","7",1,"Stimuli/versionAstim.txt","Procedure/versionAproc.txt","Tetris",NA,"STADIUM","","STADIUM","OFF","LI_Unrel_G",174,"seqrec","No","User","RGN Test","ON","Yes",2210,NA,NA,NA,NA,NA,NA,NA,NA
"A2B7SPYBPF7H8I","Collector",1,188,"2016-06-06T15:39:06-07:00","8",1,"Stimuli/versionAstim.txt","Procedure/versionAproc.txt","Tetris",NA,"VISE","","VISE","OFF","NPLI_Cat_G",270,"seqrec","No","User","RGN Test","ON","No",3260,NA,NA,NA,NA,NA,NA,NA,NA
"A2B7SPYBPF7H8I","Collector",1,189,"2016-06-06T15:39:12-07:00","6",1,"Stimuli/versionAstim.txt","Procedure/versionAproc.txt","Tetris",NA,"TENNIS BALL","","TENNIS BALL","OFF","LI_AdHoc_G",127,"seqrec","No","User","RGN Test","ON","Yes",3630,NA,NA,NA,NA,NA,NA,NA,NA
"A2B7SPYBPF7H8I","Collector",1,190,"2016-06-06T15:39:17-07:00","5",1,"Stimuli/versionAstim.txt","Procedure/versionAproc.txt","Tetris",NA,"ART","","ART","OFF","CI_Unrel_G",211,"seqrec","No","User","RGN Test","ON","No",2400,NA,NA,NA,NA,NA,NA,NA,NA
"A2B7SPYBPF7H8I","Collector",1,191,"2016-06-06T15:39:22-07:00","5",1,"Stimuli/versionAstim.txt","Procedure/versionAproc.txt","Tetris",NA,"PYRAMID","","PYRAMID","OFF","LI_Unrel_G",133,"seqrec","No","User","RGN Test","ON","Yes",1450,NA,NA,NA,NA,NA,NA,NA,NA
"A2B7SPYBPF7H8I","Collector",1,192,"2016-06-06T15:39:26-07:00","4",1,"Stimuli/versionAstim.txt","Procedure/versionAproc.txt","Tetris",NA,"SUNRISE","","SUNRISE","OFF","LI_Unrel_G",181,"seqrec","No","User","RGN Test","ON","Yes",1250,NA,NA,NA,NA,NA,NA,NA,NA
"A2B7SPYBPF7H8I","Collector",1,193,"2016-06-06T15:39:33-07:00","7",1,"Stimuli/versionAstim.txt","Procedure/versionAproc.txt","Tetris",NA,"WEDGE","","WEDGE","OFF","NPLI_Cat_G",269,"seqrec","No","User","RGN Test","ON","No",3400,NA,NA,NA,NA,NA,NA,NA,NA
"A2B7SPYBPF7H8I","Collector",1,194,"2016-06-06T15:39:41-07:00","8",1,"Stimuli/versionAstim.txt","Procedure/versionAproc.txt","Tetris",NA,"REPTILE","","REPTILE","OFF","NPLI_Unrel_G",241,"seqrec","No","User","RGN Test","ON","No",4730,NA,NA,NA,NA,NA,NA,NA,NA
"A2B7SPYBPF7H8I","Collector",1,195,"2016-06-06T15:39:45-07:00","4",1,"Stimuli/versionAstim.txt","Procedure/versionAproc.txt","Tetris",NA,"SQUIRREL","","SQUIRREL","OFF","LI_Cat_G",167,"seqrec","No","User","RGN Test","ON","Yes",1720,NA,NA,NA,NA,NA,NA,NA,NA
"A2B7SPYBPF7H8I","Collector",1,196,"2016-06-06T15:39:50-07:00","5",1,"Stimuli/versionAstim.txt","Procedure/versionAproc.txt","Tetris",NA,"PUPPY","","PUPPY","OFF","NPLI_Unrel_G",245,"seqrec","No","User","RGN Test","ON","No",1620,NA,NA,NA,NA,NA,NA,NA,NA
"A2B7SPYBPF7H8I","Collector",1,197,"2016-06-06T15:39:55-07:00","5",1,"Stimuli/versionAstim.txt","Procedure/versionAproc.txt","Tetris",NA,"LICORICE","","LICORICE","OFF","NPLI_AdHoc_G",253,"seqrec","No","User","RGN Test","ON","No",640,NA,NA,NA,NA,NA,NA,NA,NA
"A2B7SPYBPF7H8I","Collector",1,198,"2016-06-06T15:40:02-07:00","7",1,"Stimuli/versionAstim.txt","Procedure/versionAproc.txt","Tetris",NA,"SANDER","","SANDER","OFF","NPLI_Cat_G",268,"seqrec","No","User","RGN Test","ON","Yes",1650,NA,NA,NA,NA,NA,NA,NA,NA
"A2B7SPYBPF7H8I","Collector",1,199,"2016-06-06T15:40:06-07:00","4",1,"Stimuli/versionAstim.txt","Procedure/versionAproc.txt","Tetris",NA,"SAW","","SAW","OFF","NPCI_Cat_G",297,"seqrec","No","User","RGN Test","ON","Yes",1580,NA,NA,NA,NA,NA,NA,NA,NA
"A2B7SPYBPF7H8I","Collector",1,200,"2016-06-06T15:40:11-07:00","5",1,"Stimuli/versionAstim.txt","Procedure/versionAproc.txt","Tetris",NA,"BOW","","BOW","OFF","CI_Unrel_G",188,"seqrec","No","User","RGN Test","ON","Yes",2620,NA,NA,NA,NA,NA,NA,NA,NA
"A2B7SPYBPF7H8I","Collector",1,201,"2016-06-06T15:40:15-07:00","4",1,"Stimuli/versionAstim.txt","Procedure/versionAproc.txt","Tetris",NA,"DONKEY","","DONKEY","OFF","LI_Cat_G",168,"seqrec","No","User","RGN Test","ON","Yes",920,NA,NA,NA,NA,NA,NA,NA,NA
"A2B7SPYBPF7H8I","Collector",1,202,"2016-06-06T15:40:20-07:00","5",1,"Stimuli/versionAstim.txt","Procedure/versionAproc.txt","Tetris",NA,"FOX","","FOX","OFF","LI_Cat_G",170,"seqrec","No","User","RGN Test","ON","Yes",830,NA,NA,NA,NA,NA,NA,NA,NA
"A2B7SPYBPF7H8I","Collector",1,203,"2016-06-06T15:40:25-07:00","5",1,"Stimuli/versionAstim.txt","Procedure/versionAproc.txt","Tetris",NA,"CHAIN SAW","","CHAIN SAW","OFF","LI_AdHoc_G",154,"seqrec","No","User","RGN Test","ON","No",1670,NA,NA,NA,NA,NA,NA,NA,NA
"A2B7SPYBPF7H8I","Collector",1,204,"2016-06-06T15:40:30-07:00","5",1,"Stimuli/versionAstim.txt","Procedure/versionAproc.txt","Tetris",NA,"LEOPARD","","LEOPARD","OFF","LI_Cat_G",169,"seqrec","No","User","RGN Test","ON","Yes",2530,NA,NA,NA,NA,NA,NA,NA,NA
"A2B7SPYBPF7H8I","Collector",1,205,"2016-06-06T15:40:35-07:00","5",1,"Stimuli/versionAstim.txt","Procedure/versionAproc.txt","Tetris",NA,"WHIP","","WHIP","OFF","NPLI_Unrel_G",250,"seqrec","No","User","RGN Test","ON","Yes",1920,NA,NA,NA,NA,NA,NA,NA,NA
"A2B7SPYBPF7H8I","Collector",1,206,"2016-06-06T15:40:40-07:00","5",1,"Stimuli/versionAstim.txt","Procedure/versionAproc.txt","Tetris",NA,"RAVEN","","RAVEN","OFF","NPCI_AdHoc_G",295,"seqrec","No","User","RGN Test","ON","Yes",1720,NA,NA,NA,NA,NA,NA,NA,NA
"A2B7SPYBPF7H8I","Collector",1,207,"2016-06-06T15:40:45-07:00","5",1,"Stimuli/versionAstim.txt","Procedure/versionAproc.txt","Tetris",NA,"LIMOUSINE","","LIMOUSINE","OFF","NPLI_AdHoc_G",256,"seqrec","No","User","RGN Test","ON","No",2450,NA,NA,NA,NA,NA,NA,NA,NA
"A2B7SPYBPF7H8I","Collector",1,208,"2016-06-06T15:40:50-07:00","5",1,"Stimuli/versionAstim.txt","Procedure/versionAproc.txt","Tetris",NA,"ELEPHANT","","ELEPHANT","OFF","LI_Cat_G",163,"seqrec","No","User","RGN Test","ON","Yes",1930,NA,NA,NA,NA,NA,NA,NA,NA
"A2B7SPYBPF7H8I","Collector",1,209,"2016-06-06T15:40:55-07:00","5",1,"Stimuli/versionAstim.txt","Procedure/versionAproc.txt","Tetris",NA,"GREEN BEANS","","GREEN BEANS","OFF","NPCI_Cat_G",278,"seqrec","No","User","RGN Test","ON","Yes",1930,NA,NA,NA,NA,NA,NA,NA,NA
"A2B7SPYBPF7H8I","Collector",1,210,"2016-06-06T15:41:00-07:00","5",1,"Stimuli/versionAstim.txt","Procedure/versionAproc.txt","Tetris",NA,"HORSE","","HORSE","OFF","LI_Cat_G",162,"seqrec","No","User","RGN Test","ON","Yes",2420,NA,NA,NA,NA,NA,NA,NA,NA
"A2B7SPYBPF7H8I","Collector",1,211,"2016-06-06T15:41:04-07:00","4",1,"Stimuli/versionAstim.txt","Procedure/versionAproc.txt","Tetris",NA,"MOSS","","MOSS","OFF","LI_AdHoc_G",124,"seqrec","No","User","RGN Test","ON","Yes",1160,NA,NA,NA,NA,NA,NA,NA,NA
"A2B7SPYBPF7H8I","Collector",1,212,"2016-06-06T15:41:09-07:00","5",1,"Stimuli/versionAstim.txt","Procedure/versionAproc.txt","Tetris",NA,"MOVIE","","MOVIE","OFF","LI_Unrel_G",179,"seqrec","No","User","RGN Test","ON","Yes",1530,NA,NA,NA,NA,NA,NA,NA,NA
"A2B7SPYBPF7H8I","Collector",1,213,"2016-06-06T15:41:16-07:00","7",1,"Stimuli/versionAstim.txt","Procedure/versionAproc.txt","Tetris",NA,"PACKET","","PACKET","OFF","NPCI_Unrel_G",290,"seqrec","No","User","RGN Test","ON","No",4390,NA,NA,NA,NA,NA,NA,NA,NA
"A2B7SPYBPF7H8I","Collector",1,214,"2016-06-06T15:41:21-07:00","5",1,"Stimuli/versionAstim.txt","Procedure/versionAproc.txt","Tetris",NA,"RUT","","RUT","OFF","NPLI_Unrel_G",249,"seqrec","No","User","RGN Test","ON","Yes",2150,NA,NA,NA,NA,NA,NA,NA,NA
"A2B7SPYBPF7H8I","Collector",1,215,"2016-06-06T15:41:25-07:00","4",1,"Stimuli/versionAstim.txt","Procedure/versionAproc.txt","Tetris",NA,"CAULIFLOWER","","CAULIFLOWER","OFF","NPLI_Cat_G",225,"seqrec","No","User","RGN Test","ON","No",1810,NA,NA,NA,NA,NA,NA,NA,NA
"A2B7SPYBPF7H8I","Collector",1,216,"2016-06-06T15:41:31-07:00","6",1,"Stimuli/versionAstim.txt","Procedure/versionAproc.txt","Tetris",NA,"SPIKE","","SPIKE","OFF","NPLI_Unrel_G",234,"seqrec","No","User","RGN Test","ON","No",3290,NA,NA,NA,NA,NA,NA,NA,NA
"A2B7SPYBPF7H8I","Collector",1,217,"2016-06-06T15:41:36-07:00","5",1,"Stimuli/versionAstim.txt","Procedure/versionAproc.txt","Tetris",NA,"EBONY","","EBONY","OFF","NPLI_AdHoc_G",261,"seqrec","No","User","RGN Test","ON","No",1190,NA,NA,NA,NA,NA,NA,NA,NA
"A2B7SPYBPF7H8I","Collector",1,218,"2016-06-06T15:41:41-07:00","5",1,"Stimuli/versionAstim.txt","Procedure/versionAproc.txt","Tetris",NA,"MOUSE","","MOUSE","OFF","CI_Cat_G",206,"seqrec","No","User","RGN Test","ON","Yes",2700,NA,NA,NA,NA,NA,NA,NA,NA
"A2B7SPYBPF7H8I","Collector",1,219,"2016-06-06T15:41:46-07:00","5",1,"Stimuli/versionAstim.txt","Procedure/versionAproc.txt","Tetris",NA,"SCOUT","","SCOUT","OFF","NPLI_Unrel_G",236,"seqrec","No","User","RGN Test","ON","Yes",1560,NA,NA,NA,NA,NA,NA,NA,NA
"A2B7SPYBPF7H8I","Collector",1,220,"2016-06-06T15:41:52-07:00","6",1,"Stimuli/versionAstim.txt","Procedure/versionAproc.txt","Tetris",NA,"ASPARAGUS","","ASPARAGUS","OFF","NPLI_Cat_G",223,"seqrec","No","User","RGN Test","ON","No",3850,NA,NA,NA,NA,NA,NA,NA,NA
"A2B7SPYBPF7H8I","Collector",1,221,"2016-06-06T15:41:57-07:00","5",1,"Stimuli/versionAstim.txt","Procedure/versionAproc.txt","Tetris",NA,"SIREN","","SIREN","OFF","CI_AdHoc_G",199,"seqrec","No","User","RGN Test","ON","No",2270,NA,NA,NA,NA,NA,NA,NA,NA
"A2B7SPYBPF7H8I","Collector",1,222,"2016-06-06T15:42:04-07:00","7",1,"Stimuli/versionAstim.txt","Procedure/versionAproc.txt","Tetris",NA,"AWL","","AWL","OFF","NPLI_Cat_G",267,"seqrec","No","User","RGN Test","ON","No",2290,NA,NA,NA,NA,NA,NA,NA,NA
"A2B7SPYBPF7H8I","Collector",1,223,"2016-06-06T15:42:09-07:00","5",1,"Stimuli/versionAstim.txt","Procedure/versionAproc.txt","Tetris",NA,"PEA","","PEA","OFF","NPCI_Cat_G",277,"seqrec","No","User","RGN Test","ON","Yes",2620,NA,NA,NA,NA,NA,NA,NA,NA
"A2B7SPYBPF7H8I","Collector",1,224,"2016-06-06T15:42:13-07:00","4",1,"Stimuli/versionAstim.txt","Procedure/versionAproc.txt","Tetris",NA,"BADGE","","BADGE","OFF","LI_Unrel_G",132,"seqrec","No","User","RGN Test","ON","Yes",1270,NA,NA,NA,NA,NA,NA,NA,NA
"A2B7SPYBPF7H8I","Collector",1,225,"2016-06-06T15:42:18-07:00","5",1,"Stimuli/versionAstim.txt","Procedure/versionAproc.txt","Tetris",NA,"CAGE","","CAGE","OFF","CI_Unrel_G",207,"seqrec","No","User","RGN Test","ON","No",2220,NA,NA,NA,NA,NA,NA,NA,NA
"A2B7SPYBPF7H8I","Collector",1,226,"2016-06-06T15:42:25-07:00","7",1,"Stimuli/versionAstim.txt","Procedure/versionAproc.txt","Tetris",NA,"PLANE","","PLANE","OFF","NPCI_Cat_G",299,"seqrec","No","User","RGN Test","ON","Yes",3510,NA,NA,NA,NA,NA,NA,NA,NA
"A2B7SPYBPF7H8I","Collector",1,227,"2016-06-06T15:42:30-07:00","5",1,"Stimuli/versionAstim.txt","Procedure/versionAproc.txt","Tetris",NA,"TURNIP","","TURNIP","OFF","NPLI_Cat_G",228,"seqrec","No","User","RGN Test","ON","No",1750,NA,NA,NA,NA,NA,NA,NA,NA
"A2B7SPYBPF7H8I","Collector",1,228,"2016-06-06T15:42:34-07:00","4",1,"Stimuli/versionAstim.txt","Procedure/versionAproc.txt","Tetris",NA,"PLUM","","PLUM","OFF","CI_Cat_G",195,"seqrec","No","User","RGN Test","ON","No",950,NA,NA,NA,NA,NA,NA,NA,NA
"A2B7SPYBPF7H8I","Collector",1,229,"2016-06-06T15:42:41-07:00","7",1,"Stimuli/versionAstim.txt","Procedure/versionAproc.txt","Tetris",NA,"INCENSE","","INCENSE","OFF","NPLI_Unrel_G",240,"seqrec","No","User","RGN Test","ON","No",4030,NA,NA,NA,NA,NA,NA,NA,NA
"A2B7SPYBPF7H8I","Collector",1,230,"2016-06-06T15:42:46-07:00","5",1,"Stimuli/versionAstim.txt","Procedure/versionAproc.txt","Tetris",NA,"DIAGRAM","","DIAGRAM","OFF","NPCI_Unrel_G",282,"seqrec","No","User","RGN Test","ON","Yes",2600,NA,NA,NA,NA,NA,NA,NA,NA
"A2B7SPYBPF7H8I","Collector",1,231,"2016-06-06T15:42:50-07:00","4",1,"Stimuli/versionAstim.txt","Procedure/versionAproc.txt","Tetris",NA,"SALAD","","SALAD","OFF","LI_AdHoc_G",131,"seqrec","No","User","RGN Test","ON","No",1330,NA,NA,NA,NA,NA,NA,NA,NA
"A2B7SPYBPF7H8I","Collector",1,232,"2016-06-06T15:42:55-07:00","5",1,"Stimuli/versionAstim.txt","Procedure/versionAproc.txt","Tetris",NA,"INK","","INK","OFF","NPLI_AdHoc_G",257,"seqrec","No","User","RGN Test","ON","No",2330,NA,NA,NA,NA,NA,NA,NA,NA
"A2B7SPYBPF7H8I","Collector",1,233,"2016-06-06T15:43:01-07:00","6",1,"Stimuli/versionAstim.txt","Procedure/versionAproc.txt","Tetris",NA,"EMERALD","","EMERALD","OFF","CI_AdHoc_G",183,"seqrec","No","User","RGN Test","ON","Yes",3420,NA,NA,NA,NA,NA,NA,NA,NA
"A2B7SPYBPF7H8I","Collector",1,234,"2016-06-06T15:43:06-07:00","5",1,"Stimuli/versionAstim.txt","Procedure/versionAproc.txt","Tetris",NA,"CAT","","CAT","OFF","CI_Cat_G",202,"seqrec","No","User","RGN Test","ON","No",1540,NA,NA,NA,NA,NA,NA,NA,NA
"A2B7SPYBPF7H8I","Collector",1,235,"2016-06-06T15:43:12-07:00","6",1,"Stimuli/versionAstim.txt","Procedure/versionAproc.txt","Tetris",NA,"MACHINE","","MACHINE","OFF","NPLI_Unrel_G",244,"seqrec","No","User","RGN Test","ON","Yes",3460,NA,NA,NA,NA,NA,NA,NA,NA
"A2B7SPYBPF7H8I","Collector",1,236,"2016-06-06T15:43:17-07:00","5",1,"Stimuli/versionAstim.txt","Procedure/versionAproc.txt","Tetris",NA,"COAL","","COAL","OFF","NPCI_AdHoc_G",292,"seqrec","No","User","RGN Test","ON","No",2110,NA,NA,NA,NA,NA,NA,NA,NA
"A2B7SPYBPF7H8I","Collector",1,237,"2016-06-06T15:43:21-07:00","4",1,"Stimuli/versionAstim.txt","Procedure/versionAproc.txt","Tetris",NA,"PEDAL","","PEDAL","OFF","CI_Unrel_G",191,"seqrec","No","User","RGN Test","ON","No",700,NA,NA,NA,NA,NA,NA,NA,NA
"A2B7SPYBPF7H8I","Collector",1,238,"2016-06-06T15:43:25-07:00","4",1,"Stimuli/versionAstim.txt","Procedure/versionAproc.txt","Tetris",NA,"LAVA","","LAVA","OFF","NPLI_AdHoc_G",218,"seqrec","No","User","RGN Test","ON","No",980,NA,NA,NA,NA,NA,NA,NA,NA
"A2B7SPYBPF7H8I","Collector",1,239,"2016-06-06T15:43:30-07:00","5",1,"Stimuli/versionAstim.txt","Procedure/versionAproc.txt","Tetris",NA,"WHITE","","WHITE","OFF","NPCI_Unrel_G",288,"seqrec","No","User","RGN Test","ON","Yes",2920,NA,NA,NA,NA,NA,NA,NA,NA
"A2B7SPYBPF7H8I","Collector",1,240,"2016-06-06T15:43:36-07:00","6",1,"Stimuli/versionAstim.txt","Procedure/versionAproc.txt","Tetris",NA,"CANISTER","","CANISTER","OFF","NPLI_Unrel_G",238,"seqrec","No","User","RGN Test","ON","No",3210,NA,NA,NA,NA,NA,NA,NA,NA
"A2B7SPYBPF7H8I","Collector",1,241,"2016-06-06T15:43:44-07:00","8",1,"Stimuli/versionAstim.txt","Procedure/versionAproc.txt","Tetris",NA,"ASPHALT","","ASPHALT","OFF","NPLI_AdHoc_G",254,"seqrec","No","User","RGN Test","ON","No",5470,NA,NA,NA,NA,NA,NA,NA,NA
"A2B7SPYBPF7H8I","Collector",1,242,"2016-06-06T15:43:50-07:00","6",1,"Stimuli/versionAstim.txt","Procedure/versionAproc.txt","Tetris",NA,"BELLS","","BELLS","OFF","LI_AdHoc_G",153,"seqrec","No","User","RGN Test","ON","Yes",2170,NA,NA,NA,NA,NA,NA,NA,NA
"A2B7SPYBPF7H8I","Collector",1,243,"2016-06-06T15:43:55-07:00","5",1,"Stimuli/versionAstim.txt","Procedure/versionAproc.txt","Tetris",NA,"PAPERCLIP","","PAPERCLIP","OFF","NPLI_Unrel_G",239,"seqrec","No","User","RGN Test","ON","No",1910,NA,NA,NA,NA,NA,NA,NA,NA
"A2B7SPYBPF7H8I","Collector",1,244,"2016-06-06T15:44:01-07:00","6",1,"Stimuli/versionAstim.txt","Procedure/versionAproc.txt","Tetris",NA,"FATHER","","FATHER","OFF","LI_Unrel_G",175,"seqrec","No","User","RGN Test","ON","No",3300,NA,NA,NA,NA,NA,NA,NA,NA
"A2B7SPYBPF7H8I","Collector",1,245,"2016-06-06T15:44:07-07:00","6",1,"Stimuli/versionAstim.txt","Procedure/versionAproc.txt","Tetris",NA,"PEPPERS","","PEPPERS","OFF","NPLI_Cat_G",229,"seqrec","No","User","RGN Test","ON","No",2770,NA,NA,NA,NA,NA,NA,NA,NA
"A2B7SPYBPF7H8I","Collector",1,246,"2016-06-06T15:44:13-07:00","6",1,"Stimuli/versionAstim.txt","Procedure/versionAproc.txt","Tetris",NA,"ASH","","ASH","OFF","NPLI_AdHoc_G",258,"seqrec","No","User","RGN Test","ON","Yes",3320,NA,NA,NA,NA,NA,NA,NA,NA
"A2B7SPYBPF7H8I","Collector",1,247,"2016-06-06T15:44:21-07:00","8",1,"Stimuli/versionAstim.txt","Procedure/versionAproc.txt","Tetris",NA,"CANTALOUPE","","CANTALOUPE","OFF","LI_Cat_G",147,"seqrec","No","User","RGN Test","ON","Yes",1600,NA,NA,NA,NA,NA,NA,NA,NA
"A2B7SPYBPF7H8I","Collector",1,248,"2016-06-06T15:44:33-07:00","12",1,"Stimuli/versionAstim.txt","Procedure/versionAproc.txt","Tetris",NA,"CREPE","","CREPE","OFF","NPLI_Unrel_G",246,"seqrec","No","User","RGN Test","ON","Yes",8250,NA,NA,NA,NA,NA,NA,NA,NA
"A2B7SPYBPF7H8I","Collector",1,249,"2016-06-06T15:44:40-07:00","7",1,"Stimuli/versionAstim.txt","Procedure/versionAproc.txt","Tetris",NA,"INSECT","","INSECT","OFF","LI_Unrel_G",137,"seqrec","No","User","RGN Test","ON","Yes",3440,NA,NA,NA,NA,NA,NA,NA,NA
"A2B7SPYBPF7H8I","Collector",1,250,"2016-06-06T15:44:49-07:00","9",1,"Stimuli/versionAstim.txt","Procedure/versionAproc.txt","Tetris",NA,"ONION","","ONION","OFF","NPLI_Cat_G",227,"seqrec","No","User","RGN Test","ON","No",4160,NA,NA,NA,NA,NA,NA,NA,NA
"A2B7SPYBPF7H8I","Collector",1,251,"2016-06-06T15:44:53-07:00","4",1,"Stimuli/versionAstim.txt","Procedure/versionAproc.txt","Tetris",NA,"ENGINE","","ENGINE","OFF","LI_Unrel_G",177,"seqrec","No","User","RGN Test","ON","Yes",1570,NA,NA,NA,NA,NA,NA,NA,NA
"A2B7SPYBPF7H8I","Collector",1,252,"2016-06-06T15:44:58-07:00","5",1,"Stimuli/versionAstim.txt","Procedure/versionAproc.txt","Tetris",NA,"RAIN ","","RAIN ","OFF","NPCI_AdHoc_G",275,"seqrec","No","User","RGN Test","ON","Yes",1200,NA,NA,NA,NA,NA,NA,NA,NA
"A2B7SPYBPF7H8I","Collector",1,253,"2016-06-06T15:45:03-07:00","5",1,"Stimuli/versionAstim.txt","Procedure/versionAproc.txt","Tetris",NA,"WOUND","","WOUND","OFF","CI_Unrel_G",189,"seqrec","No","User","RGN Test","ON","No",1130,NA,NA,NA,NA,NA,NA,NA,NA
"A2B7SPYBPF7H8I","Collector",1,254,"2016-06-06T15:45:12-07:00","9",1,"Stimuli/versionAstim.txt","Procedure/versionAproc.txt","Tetris",NA,"SODA","","SODA","OFF","NPLI_AdHoc_G",212,"seqrec","No","User","RGN Test","ON","No",1340,NA,NA,NA,NA,NA,NA,NA,NA
"A2B7SPYBPF7H8I","Collector",1,255,"2016-06-06T15:45:16-07:00","4",1,"Stimuli/versionAstim.txt","Procedure/versionAproc.txt","Tetris",NA,"VALLEY","","VALLEY","OFF","NPCI_Unrel_G",283,"seqrec","No","User","RGN Test","ON","No",1460,NA,NA,NA,NA,NA,NA,NA,NA
"A2B7SPYBPF7H8I","Collector",1,256,"2016-06-06T15:45:21-07:00","5",1,"Stimuli/versionAstim.txt","Procedure/versionAproc.txt","Tetris",NA,"VAULT","","VAULT","OFF","NPCI_Unrel_G",289,"seqrec","No","User","RGN Test","ON","Yes",1560,NA,NA,NA,NA,NA,NA,NA,NA
"A2B7SPYBPF7H8I","Collector",1,257,"2016-06-06T15:45:25-07:00","4",1,"Stimuli/versionAstim.txt","Procedure/versionAproc.txt","Tetris",NA,"HAMMER","","HAMMER","OFF","NPCI_Cat_G",301,"seqrec","No","User","RGN Test","ON","No",1560,NA,NA,NA,NA,NA,NA,NA,NA
"A2B7SPYBPF7H8I","Collector",1,258,"2016-06-06T15:45:31-07:00","6",1,"Stimuli/versionAstim.txt","Procedure/versionAproc.txt","Tetris",NA,"LIME","","LIME","OFF","LI_AdHoc_G",130,"seqrec","No","User","RGN Test","ON","Yes",2620,NA,NA,NA,NA,NA,NA,NA,NA
"A2B7SPYBPF7H8I","Collector",1,259,"2016-06-06T15:45:35-07:00","4",1,"Stimuli/versionAstim.txt","Procedure/versionAproc.txt","Tetris",NA,"COAST","","COAST","OFF","CI_Unrel_G",208,"seqrec","No","User","RGN Test","ON","Yes",1060,NA,NA,NA,NA,NA,NA,NA,NA
"A2B7SPYBPF7H8I","Collector",1,260,"2016-06-06T15:45:39-07:00","4",1,"Stimuli/versionAstim.txt","Procedure/versionAproc.txt","Tetris",NA,"YARD","","YARD","OFF","NPLI_Unrel_G",237,"seqrec","No","User","RGN Test","ON","No",1280,NA,NA,NA,NA,NA,NA,NA,NA
"A2B7SPYBPF7H8I","Collector",1,261,"2016-06-06T15:45:44-07:00","5",1,"Stimuli/versionAstim.txt","Procedure/versionAproc.txt","Tetris",NA,"OCTOPUS","","OCTOPUS","OFF","CI_Unrel_G",190,"seqrec","No","User","RGN Test","ON","No",1890,NA,NA,NA,NA,NA,NA,NA,NA
"A2B7SPYBPF7H8I","Collector",1,262,"2016-06-06T15:45:48-07:00","4",1,"Stimuli/versionAstim.txt","Procedure/versionAproc.txt","Tetris",NA,"YELL","","YELL","OFF","LI_AdHoc_G",152,"seqrec","No","User","RGN Test","ON","Yes",1390,NA,NA,NA,NA,NA,NA,NA,NA
"A2B7SPYBPF7H8I","Collector",1,263,"2016-06-06T15:45:53-07:00","5",1,"Stimuli/versionAstim.txt","Procedure/versionAproc.txt","Tetris",NA,"POTATO","","POTATO","OFF","NPLI_Cat_G",222,"seqrec","No","User","RGN Test","ON","No",2210,NA,NA,NA,NA,NA,NA,NA,NA
"A2B7SPYBPF7H8I","Collector",1,264,"2016-06-06T15:45:58-07:00","5",1,"Stimuli/versionAstim.txt","Procedure/versionAproc.txt","Tetris",NA,"JUICE","","JUICE","OFF","NPCI_AdHoc_G",274,"seqrec","No","User","RGN Test","ON","Yes",1250,NA,NA,NA,NA,NA,NA,NA,NA
"A2B7SPYBPF7H8I","Collector",1,265,"2016-06-06T15:46:05-07:00","7",1,"Stimuli/versionAstim.txt","Procedure/versionAproc.txt","Tetris",NA,"PIPE","","PIPE","OFF","LI_Unrel_G",139,"seqrec","No","User","RGN Test","ON","Yes",3210,NA,NA,NA,NA,NA,NA,NA,NA
"A2B7SPYBPF7H8I","Collector",1,266,"2016-06-06T15:46:09-07:00","4",1,"Stimuli/versionAstim.txt","Procedure/versionAproc.txt","Tetris",NA,"BLUEBERRY","","BLUEBERRY","OFF","LI_Cat_G",148,"seqrec","No","User","RGN Test","ON","Yes",1680,NA,NA,NA,NA,NA,NA,NA,NA
"A2B7SPYBPF7H8I","Collector",1,267,"2016-06-06T15:46:13-07:00","4",1,"Stimuli/versionAstim.txt","Procedure/versionAproc.txt","Tetris",NA,"WRECK","","WRECK","OFF","NPLI_Unrel_G",242,"seqrec","No","User","RGN Test","ON","No",1530,NA,NA,NA,NA,NA,NA,NA,NA
"A2B7SPYBPF7H8I","Collector",1,268,"2016-06-06T15:46:18-07:00","5",1,"Stimuli/versionAstim.txt","Procedure/versionAproc.txt","Tetris",NA,"LEMON","","LEMON","OFF","CI_Cat_G",196,"seqrec","No","User","RGN Test","ON","Yes",2380,NA,NA,NA,NA,NA,NA,NA,NA
"A2B7SPYBPF7H8I","Collector",1,269,"2016-06-06T15:46:23-07:00","5",1,"Stimuli/versionAstim.txt","Procedure/versionAproc.txt","Tetris",NA,"CABBAGE","","CABBAGE","OFF","NPLI_Cat_G",224,"seqrec","No","User","RGN Test","ON","Yes",850,NA,NA,NA,NA,NA,NA,NA,NA
"A2B7SPYBPF7H8I","Collector",1,270,"2016-06-06T15:46:27-07:00","4",1,"Stimuli/versionAstim.txt","Procedure/versionAproc.txt","Tetris",NA,"TRACTOR","","TRACTOR","OFF","LI_AdHoc_G",156,"seqrec","No","User","RGN Test","ON","Yes",1730,NA,NA,NA,NA,NA,NA,NA,NA
"A2B7SPYBPF7H8I","Collector",1,271,"2016-06-06T15:46:32-07:00","5",1,"Stimuli/versionAstim.txt","Procedure/versionAproc.txt","Tetris",NA,"SNAKE","","SNAKE","OFF","LI_AdHoc_G",128,"seqrec","No","User","RGN Test","ON","Yes",1620,NA,NA,NA,NA,NA,NA,NA,NA
"A2B7SPYBPF7H8I","Collector",1,272,"2016-06-06T15:46:37-07:00","5",1,"Stimuli/versionAstim.txt","Procedure/versionAproc.txt","Tetris",NA,"FUR","","FUR","OFF","CI_Unrel_G",210,"seqrec","No","User","RGN Test","ON","No",2260,NA,NA,NA,NA,NA,NA,NA,NA
"A2B7SPYBPF7H8I","Collector",1,273,"2016-06-06T15:46:42-07:00","5",1,"Stimuli/versionAstim.txt","Procedure/versionAproc.txt","Tetris",NA,"SHRIMP","","SHRIMP","OFF","LI_Unrel_G",140,"seqrec","No","User","RGN Test","ON","Yes",1840,NA,NA,NA,NA,NA,NA,NA,NA
"A2B7SPYBPF7H8I","Collector",1,274,"2016-06-06T15:46:48-07:00","6",1,"Stimuli/versionAstim.txt","Procedure/versionAproc.txt","Tetris",NA,"AVOCADO","","AVOCADO","OFF","CI_AdHoc_G",184,"seqrec","No","User","RGN Test","ON","Yes",1040,NA,NA,NA,NA,NA,NA,NA,NA
"A2B7SPYBPF7H8I","Collector",1,275,"2016-06-06T15:46:52-07:00","4",1,"Stimuli/versionAstim.txt","Procedure/versionAproc.txt","Tetris",NA,"BABIES","","BABIES","OFF","LI_AdHoc_G",159,"seqrec","No","User","RGN Test","ON","No",1480,NA,NA,NA,NA,NA,NA,NA,NA
"A2B7SPYBPF7H8I","Collector",1,276,"2016-06-06T15:46:56-07:00","4",1,"Stimuli/versionAstim.txt","Procedure/versionAproc.txt","Tetris",NA,"LEAVES","","LEAVES","OFF","LI_AdHoc_G",122,"seqrec","No","User","RGN Test","ON","Yes",1430,NA,NA,NA,NA,NA,NA,NA,NA
"A2B7SPYBPF7H8I","Collector",1,277,"2016-06-06T15:47:00-07:00","4",1,"Stimuli/versionAstim.txt","Procedure/versionAproc.txt","Tetris",NA,"WATER","","WATER","OFF","NPCI_AdHoc_G",273,"seqrec","No","User","RGN Test","ON","Yes",1320,NA,NA,NA,NA,NA,NA,NA,NA
"A2B7SPYBPF7H8I","Collector",1,278,"2016-06-06T15:47:07-07:00","7",1,"Stimuli/versionAstim.txt","Procedure/versionAproc.txt","Tetris",NA,"STEREO","","STEREO","OFF","LI_AdHoc_G",160,"seqrec","No","User","RGN Test","ON","No",4330,NA,NA,NA,NA,NA,NA,NA,NA
"A2B7SPYBPF7H8I","Collector",1,279,"2016-06-06T15:47:14-07:00","7",1,"Stimuli/versionAstim.txt","Procedure/versionAproc.txt","Tetris",NA,"SWEAT","","SWEAT","OFF","NPLI_AdHoc_G",214,"seqrec","No","User","RGN Test","ON","Yes",3970,NA,NA,NA,NA,NA,NA,NA,NA
"A2B7SPYBPF7H8I","Collector",1,280,"2016-06-06T15:47:18-07:00","4",1,"Stimuli/versionAstim.txt","Procedure/versionAproc.txt","Tetris",NA,"RAT","","RAT","OFF","LI_Cat_G",164,"seqrec","No","User","RGN Test","ON","Yes",1230,NA,NA,NA,NA,NA,NA,NA,NA
"A2B7SPYBPF7H8I","Collector",1,281,"2016-06-06T15:47:25-07:00","7",1,"Stimuli/versionAstim.txt","Procedure/versionAproc.txt","Tetris",NA,"CAKE","","CAKE","OFF","LI_Unrel_G",173,"seqrec","No","User","RGN Test","ON","Yes",3850,NA,NA,NA,NA,NA,NA,NA,NA
"A2B7SPYBPF7H8I","Collector",1,282,"2016-06-06T15:47:30-07:00","5",1,"Stimuli/versionAstim.txt","Procedure/versionAproc.txt","Tetris",NA,"CREAM","","CREAM","OFF","NPLI_AdHoc_G",221,"seqrec","No","User","RGN Test","ON","Yes",2480,NA,NA,NA,NA,NA,NA,NA,NA
"A2B7SPYBPF7H8I","Collector",1,283,"2016-06-06T15:47:37-07:00","7",1,"Stimuli/versionAstim.txt","Procedure/versionAproc.txt","Tetris",NA,"PLIERS","","PLIERS","OFF","NPCI_Cat_G",300,"seqrec","No","User","RGN Test","ON","No",3910,NA,NA,NA,NA,NA,NA,NA,NA
"A2B7SPYBPF7H8I","Collector",1,284,"2016-06-06T15:47:47-07:00","10",1,"Stimuli/versionAstim.txt","Procedure/versionAproc.txt","Tetris",NA,"BUFFALO","","BUFFALO","OFF","LI_Cat_G",171,"seqrec","No","User","RGN Test","ON","Yes",6540,NA,NA,NA,NA,NA,NA,NA,NA
"A2B7SPYBPF7H8I","Collector",1,285,"2016-06-06T15:47:52-07:00","5",1,"Stimuli/versionAstim.txt","Procedure/versionAproc.txt","Tetris",NA,"VINEGAR","","VINEGAR","OFF","NPLI_AdHoc_G",220,"seqrec","No","User","RGN Test","ON","No",1830,NA,NA,NA,NA,NA,NA,NA,NA
"A2B7SPYBPF7H8I","Collector",1,286,"2016-06-06T15:47:57-07:00","5",1,"Stimuli/versionAstim.txt","Procedure/versionAproc.txt","Tetris",NA,"TEE","","TEE","OFF","NPLI_Unrel_G",232,"seqrec","No","User","RGN Test","ON","Yes",2250,NA,NA,NA,NA,NA,NA,NA,NA
"A2B7SPYBPF7H8I","Collector",1,287,"2016-06-06T15:48:01-07:00","4",1,"Stimuli/versionAstim.txt","Procedure/versionAproc.txt","Tetris",NA,"GUN","","GUN","OFF","CI_AdHoc_G",198,"seqrec","No","User","RGN Test","ON","No",1660,NA,NA,NA,NA,NA,NA,NA,NA
"A2B7SPYBPF7H8I","Collector",1,288,"2016-06-06T15:48:05-07:00","4",1,"Stimuli/versionAstim.txt","Procedure/versionAproc.txt","Tetris",NA,"COMEDY","","COMEDY","OFF","NPCI_Unrel_G",286,"seqrec","No","User","RGN Test","ON","No",950,NA,NA,NA,NA,NA,NA,NA,NA
"A2B7SPYBPF7H8I","Collector",1,289,"2016-06-06T15:48:09-07:00","4",1,"Stimuli/versionAstim.txt","Procedure/versionAproc.txt","Tetris",NA,"JACKHAMMER","","JACKHAMMER","OFF","CI_AdHoc_G",197,"seqrec","No","User","RGN Test","ON","No",760,NA,NA,NA,NA,NA,NA,NA,NA
"A2B7SPYBPF7H8I","Collector",1,290,"2016-06-06T15:48:14-07:00","5",1,"Stimuli/versionAstim.txt","Procedure/versionAproc.txt","Tetris",NA,"BANANA","","BANANA","OFF","CI_Cat_G",193,"seqrec","No","User","RGN Test","ON","Yes",1960,NA,NA,NA,NA,NA,NA,NA,NA
"A2B7SPYBPF7H8I","Collector",1,291,"2016-06-06T15:48:18-07:00","4",1,"Stimuli/versionAstim.txt","Procedure/versionAproc.txt","Tetris",NA,"CHERRY","","CHERRY","OFF","LI_Cat_G",143,"seqrec","No","User","RGN Test","ON","Yes",740,NA,NA,NA,NA,NA,NA,NA,NA
"A2B7SPYBPF7H8I","Collector",1,292,"2016-06-06T15:48:22-07:00","4",1,"Stimuli/versionAstim.txt","Procedure/versionAproc.txt","Tetris",NA,"TOWN","","TOWN","OFF","CI_Unrel_G",187,"seqrec","No","User","RGN Test","ON","No",1360,NA,NA,NA,NA,NA,NA,NA,NA
"A2B7SPYBPF7H8I","Collector",1,293,"2016-06-06T15:48:26-07:00","4",1,"Stimuli/versionAstim.txt","Procedure/versionAproc.txt","Tetris",NA,"SAND","","SAND","OFF","LI_Unrel_G",138,"seqrec","No","User","RGN Test","ON","Yes",1250,NA,NA,NA,NA,NA,NA,NA,NA
"A2B7SPYBPF7H8I","Collector",1,294,"2016-06-06T15:48:33-07:00","7",1,"Stimuli/versionAstim.txt","Procedure/versionAproc.txt","Tetris",NA,"WINE","","WINE","OFF","NPLI_AdHoc_G",215,"seqrec","No","User","RGN Test","ON","No",4550,NA,NA,NA,NA,NA,NA,NA,NA
"A2B7SPYBPF7H8I","Collector",1,295,"2016-06-06T15:48:39-07:00","6",1,"Stimuli/versionAstim.txt","Procedure/versionAproc.txt","Tetris",NA,"NECTARINE","","NECTARINE","OFF","LI_Cat_G",150,"seqrec","No","User","RGN Test","ON","Yes",3350,NA,NA,NA,NA,NA,NA,NA,NA
"A2B7SPYBPF7H8I","Collector",1,296,"2016-06-06T15:48:43-07:00","4",1,"Stimuli/versionAstim.txt","Procedure/versionAproc.txt","Tetris",NA,"MUD","","MUD","OFF","CI_Unrel_G",209,"seqrec","No","User","RGN Test","ON","No",1610,NA,NA,NA,NA,NA,NA,NA,NA
"A2B7SPYBPF7H8I","Collector",1,297,"2016-06-06T15:48:50-07:00","7",1,"Stimuli/versionAstim.txt","Procedure/versionAproc.txt","Tetris",NA,"ISLAND","","ISLAND","OFF","NPCI_Unrel_G",284,"seqrec","No","User","RGN Test","ON","Yes",2020,NA,NA,NA,NA,NA,NA,NA,NA
"A2B7SPYBPF7H8I","Collector",1,298,"2016-06-06T15:48:54-07:00","4",1,"Stimuli/versionAstim.txt","Procedure/versionAproc.txt","Tetris",NA,"PUMPKIN","","PUMPKIN","OFF","NPLI_Cat_G",230,"seqrec","No","User","RGN Test","ON","Yes",940,NA,NA,NA,NA,NA,NA,NA,NA
"A2B7SPYBPF7H8I","Collector",1,299,"2016-06-06T15:49:02-07:00","8",1,"Stimuli/versionAstim.txt","Procedure/versionAproc.txt","Tetris",NA,"PIG","","PIG","OFF","CI_Cat_G",205,"seqrec","No","User","RGN Test","ON","Yes",5670,NA,NA,NA,NA,NA,NA,NA,NA
"A2B7SPYBPF7H8I","Collector",1,300,"2016-06-06T15:49:06-07:00","4",1,"Stimuli/versionAstim.txt","Procedure/versionAproc.txt","Tetris",NA,"PEAR","","PEAR","OFF","LI_Cat_G",142,"seqrec","No","User","RGN Test","ON","Yes",960,NA,NA,NA,NA,NA,NA,NA,NA
"A2B7SPYBPF7H8I","Collector",1,301,"2016-06-06T15:49:10-07:00","4",1,"Stimuli/versionAstim.txt","Procedure/versionAproc.txt","Tetris",NA,"MANHOLE","","MANHOLE","OFF","LI_Unrel_G",141,"seqrec","No","User","RGN Test","ON","Yes",730,NA,NA,NA,NA,NA,NA,NA,NA
"A2B7SPYBPF7H8I","Collector",1,302,"2016-06-06T15:49:13-07:00","3",1,"Stimuli/versionAstim.txt","Procedure/versionAproc.txt","Tetris",NA,"LAKE","","LAKE","OFF","NPLI_AdHoc_G",217,"seqrec","No","User","RGN Test","ON","Yes",860,NA,NA,NA,NA,NA,NA,NA,NA
"A2B7SPYBPF7H8I","Collector",1,303,"2016-06-06T15:49:17-07:00","4",1,"Stimuli/versionAstim.txt","Procedure/versionAproc.txt","Tetris",NA,"MINT","","MINT","OFF","CI_AdHoc_G",186,"seqrec","No","User","RGN Test","ON","No",1730,NA,NA,NA,NA,NA,NA,NA,NA
"A2B7SPYBPF7H8I","Collector",1,304,"2016-06-06T15:49:21-07:00","4",1,"Stimuli/versionAstim.txt","Procedure/versionAproc.txt","Tetris",NA,"TANGERINE","","TANGERINE","OFF","LI_Cat_G",144,"seqrec","No","User","RGN Test","ON","Yes",1260,NA,NA,NA,NA,NA,NA,NA,NA
"A2B7SPYBPF7H8I","Collector",1,305,"2016-06-06T15:49:25-07:00","4",1,"Stimuli/versionAstim.txt","Procedure/versionAproc.txt","Tetris",NA,"LENS","","LENS","OFF","NPCI_Unrel_G",291,"seqrec","No","User","RGN Test","ON","Yes",1110,NA,NA,NA,NA,NA,NA,NA,NA
"A2B7SPYBPF7H8I","Collector",1,306,"2016-06-06T15:49:36-07:00","11",1,"Stimuli/versionAstim.txt","Procedure/versionAproc.txt","Tetris",NA,"TREAT","","TREAT","OFF","NPCI_Unrel_G",287,"seqrec","No","User","RGN Test","ON","No",7830,NA,NA,NA,NA,NA,NA,NA,NA
"A2B7SPYBPF7H8I","Collector",1,307,"2016-06-06T15:49:41-07:00","5",1,"Stimuli/versionAstim.txt","Procedure/versionAproc.txt","Tetris",NA,"SHORE","","SHORE","OFF","LI_Unrel_G",178,"seqrec","No","User","RGN Test","ON","Yes",1900,NA,NA,NA,NA,NA,NA,NA,NA
"A2B7SPYBPF7H8I","Collector",1,308,"2016-06-06T15:49:44-07:00","3",1,"Stimuli/versionAstim.txt","Procedure/versionAproc.txt","Tetris",NA,"HUCKLEBERRY","","HUCKLEBERRY","OFF","LI_Cat_G",151,"seqrec","No","User","RGN Test","ON","Yes",1460,NA,NA,NA,NA,NA,NA,NA,NA
"A2B7SPYBPF7H8I","Collector",1,309,"2016-06-06T15:49:51-07:00","7",1,"Stimuli/versionAstim.txt","Procedure/versionAproc.txt","Tetris",NA,"MILK","","MILK","OFF","NPCI_AdHoc_G",276,"seqrec","No","User","RGN Test","ON","No",2090,NA,NA,NA,NA,NA,NA,NA,NA
"A2B7SPYBPF7H8I","Collector",1,310,"2016-06-06T15:49:55-07:00","4",1,"Stimuli/versionAstim.txt","Procedure/versionAproc.txt","Tetris",NA,"GARAGE","","GARAGE","OFF","NPCI_Unrel_G",285,"seqrec","No","User","RGN Test","ON","No",1080,NA,NA,NA,NA,NA,NA,NA,NA
"A2B7SPYBPF7H8I","Collector",1,311,"2016-06-06T15:49:58-07:00","3",1,"Stimuli/versionAstim.txt","Procedure/versionAproc.txt","Tetris",NA,"CLOCK","","CLOCK","OFF","LI_Unrel_G",172,"seqrec","No","User","RGN Test","ON","Yes",1220,NA,NA,NA,NA,NA,NA,NA,NA
"A2B7SPYBPF7H8I","Collector",1,312,"2016-06-06T15:50:04-07:00","6",1,"Stimuli/versionAstim.txt","Procedure/versionAproc.txt","Tetris",NA,"SHAMROCK","","SHAMROCK","OFF","LI_AdHoc_G",125,"seqrec","No","User","RGN Test","ON","Yes",1260,NA,NA,NA,NA,NA,NA,NA,NA
"A2B7SPYBPF7H8I","Collector",1,313,"2016-06-06T15:50:08-07:00","4",1,"Stimuli/versionAstim.txt","Procedure/versionAproc.txt","Tetris",NA,"JUNGLE","","JUNGLE","OFF","LI_AdHoc_G",126,"seqrec","No","User","RGN Test","ON","Yes",1030,NA,NA,NA,NA,NA,NA,NA,NA
"A2B7SPYBPF7H8I","Collector",1,314,"2016-06-06T15:50:14-07:00","6",1,"Stimuli/versionAstim.txt","Procedure/versionAproc.txt","Tetris",NA,"SHEEP","","SHEEP","OFF","LI_Cat_G",165,"seqrec","No","User","RGN Test","ON","Yes",3040,NA,NA,NA,NA,NA,NA,NA,NA
"A2B7SPYBPF7H8I","Collector",1,315,"2016-06-06T15:50:19-07:00","5",1,"Stimuli/versionAstim.txt","Procedure/versionAproc.txt","Tetris",NA,"LATHE","","LATHE","OFF","NPLI_Cat_G",266,"seqrec","No","User","RGN Test","ON","No",1390,NA,NA,NA,NA,NA,NA,NA,NA
"A2B7SPYBPF7H8I","Collector",1,316,"2016-06-06T15:50:23-07:00","4",1,"Stimuli/versionAstim.txt","Procedure/versionAproc.txt","Tetris",NA,"MERCURY","","MERCURY","OFF","NPLI_AdHoc_G",213,"seqrec","No","User","RGN Test","ON","No",1250,NA,NA,NA,NA,NA,NA,NA,NA
"A2B7SPYBPF7H8I","Collector",1,317,"2016-06-06T15:50:28-07:00","5",1,"Stimuli/versionAstim.txt","Procedure/versionAproc.txt","Tetris",NA,"GOAT","","GOAT","OFF","LI_Cat_G",166,"seqrec","No","User","RGN Test","ON","Yes",1670,NA,NA,NA,NA,NA,NA,NA,NA
"A2B7SPYBPF7H8I","Collector",1,318,"2016-06-06T15:50:32-07:00","4",1,"Stimuli/versionAstim.txt","Procedure/versionAproc.txt","Tetris",NA,"SPROUTS","","SPROUTS","OFF","LI_AdHoc_G",129,"seqrec","No","User","RGN Test","ON","Yes",980,NA,NA,NA,NA,NA,NA,NA,NA
"A2B7SPYBPF7H8I","Collector",1,319,"2016-06-06T15:50:36-07:00","4",1,"Stimuli/versionAstim.txt","Procedure/versionAproc.txt","Tetris",NA,"FROG","","FROG","OFF","LI_AdHoc_G",123,"seqrec","No","User","RGN Test","ON","Yes",720,NA,NA,NA,NA,NA,NA,NA,NA
"A2B7SPYBPF7H8I","Collector",1,320,"2016-06-06T15:50:40-07:00","4",1,"Stimuli/versionAstim.txt","Procedure/versionAproc.txt","Tetris",NA,"CRYPT","","CRYPT","OFF","LI_Unrel_G",135,"seqrec","No","User","RGN Test","ON","Yes",730,NA,NA,NA,NA,NA,NA,NA,NA
"A2B7SPYBPF7H8I","Collector",1,321,"2016-06-06T15:50:44-07:00","4",1,"Stimuli/versionAstim.txt","Procedure/versionAproc.txt","Tetris",NA,"n/a","n/a","n/a","n/a","n/a",0,"Instruct","N/A","User","Click the button below to continue.","OFF","",1560,NA,NA,NA,NA,NA,NA,NA,NA
"A2B7SPYBPF7H8I","Collector",1,322,"2016-06-06T15:51:06-07:00","22",1,"Stimuli/versionAstim.txt","Procedure/versionAproc.txt","Tetris",NA,"n/a","n/a","n/a","n/a","n/a",0,"Instruct","N/A","User","You again will be presented with 6 lists of words, each containing 20 words, but now you will complete a recall memory test following each list. After each list is presented, you will type in the words you saw on that list into a dialog box. You will have 1 minute to recall each list. The computer will prompt you when your time is up. Click the button below to begin the first list.","OFF","",18480,NA,NA,NA,NA,NA,NA,NA,NA
"A2B7SPYBPF7H8I","Collector",1,323,"2016-06-06T15:51:13-07:00","7",1,"Stimuli/versionAstim.txt","Procedure/versionAproc.txt","Tetris",NA,"CLOVES","","CLOVES","OFF","Cat_Recall_L1",304,"Study","No","3","Cat_Recall_L1","ON","",3000,NA,NA,NA,NA,NA,NA,NA,NA
"A2B7SPYBPF7H8I","Collector",1,324,"2016-06-06T15:51:19-07:00","6",1,"Stimuli/versionAstim.txt","Procedure/versionAproc.txt","Tetris",NA,"THYME","","THYME","OFF","Cat_Recall_L1",308,"Study","No","3","Cat_Recall_L1","ON","",3000,NA,NA,NA,NA,NA,NA,NA,NA
"A2B7SPYBPF7H8I","Collector",1,325,"2016-06-06T15:51:27-07:00","8",1,"Stimuli/versionAstim.txt","Procedure/versionAproc.txt","Tetris",NA,"HORSERADISH","","HORSERADISH","OFF","Cat_Recall_L1",318,"Study","No","3","Cat_Recall_L1","ON","",3000,NA,NA,NA,NA,NA,NA,NA,NA
"A2B7SPYBPF7H8I","Collector",1,326,"2016-06-06T15:51:33-07:00","6",1,"Stimuli/versionAstim.txt","Procedure/versionAproc.txt","Tetris",NA,"CUMIN","","CUMIN","OFF","Cat_Recall_L1",316,"Study","No","3","Cat_Recall_L1","ON","",3000,NA,NA,NA,NA,NA,NA,NA,NA
"A2B7SPYBPF7H8I","Collector",1,327,"2016-06-06T15:51:39-07:00","6",1,"Stimuli/versionAstim.txt","Procedure/versionAproc.txt","Tetris",NA,"CELERY SEED","","CELERY SEED","OFF","Cat_Recall_L1",319,"Study","No","3","Cat_Recall_L1","ON","",3000,NA,NA,NA,NA,NA,NA,NA,NA
"A2B7SPYBPF7H8I","Collector",1,328,"2016-06-06T15:51:45-07:00","6",1,"Stimuli/versionAstim.txt","Procedure/versionAproc.txt","Tetris",NA,"BASIL","","BASIL","OFF","Cat_Recall_L1",320,"Study","No","3","Cat_Recall_L1","ON","",3000,NA,NA,NA,NA,NA,NA,NA,NA
"A2B7SPYBPF7H8I","Collector",1,329,"2016-06-06T15:51:50-07:00","5",1,"Stimuli/versionAstim.txt","Procedure/versionAproc.txt","Tetris",NA,"ALMOND","","ALMOND","OFF","Cat_Recall_L1",310,"Study","No","3","Cat_Recall_L1","ON","",3000,NA,NA,NA,NA,NA,NA,NA,NA
"A2B7SPYBPF7H8I","Collector",1,330,"2016-06-06T15:51:56-07:00","6",1,"Stimuli/versionAstim.txt","Procedure/versionAproc.txt","Tetris",NA,"TURMERIC","","TURMERIC","OFF","Cat_Recall_L1",321,"Study","No","3","Cat_Recall_L1","ON","",3000,NA,NA,NA,NA,NA,NA,NA,NA
"A2B7SPYBPF7H8I","Collector",1,331,"2016-06-06T15:52:02-07:00","6",1,"Stimuli/versionAstim.txt","Procedure/versionAproc.txt","Tetris",NA,"CHIVES","","CHIVES","OFF","Cat_Recall_L1",314,"Study","No","3","Cat_Recall_L1","ON","",3000,NA,NA,NA,NA,NA,NA,NA,NA
"A2B7SPYBPF7H8I","Collector",1,332,"2016-06-06T15:52:07-07:00","5",1,"Stimuli/versionAstim.txt","Procedure/versionAproc.txt","Tetris",NA,"ONION SALT","","ONION SALT","OFF","Cat_Recall_L1",307,"Study","No","3","Cat_Recall_L1","ON","",3000,NA,NA,NA,NA,NA,NA,NA,NA
"A2B7SPYBPF7H8I","Collector",1,333,"2016-06-06T15:52:13-07:00","6",1,"Stimuli/versionAstim.txt","Procedure/versionAproc.txt","Tetris",NA,"CHILI POWDER","","CHILI POWDER","OFF","Cat_Recall_L1",317,"Study","No","3","Cat_Recall_L1","ON","",3000,NA,NA,NA,NA,NA,NA,NA,NA
"A2B7SPYBPF7H8I","Collector",1,334,"2016-06-06T15:52:19-07:00","6",1,"Stimuli/versionAstim.txt","Procedure/versionAproc.txt","Tetris",NA,"NUTMEG","","NUTMEG","OFF","Cat_Recall_L1",306,"Study","No","3","Cat_Recall_L1","ON","",3000,NA,NA,NA,NA,NA,NA,NA,NA
"A2B7SPYBPF7H8I","Collector",1,335,"2016-06-06T15:52:25-07:00","6",1,"Stimuli/versionAstim.txt","Procedure/versionAproc.txt","Tetris",NA,"ROSEMARY","","ROSEMARY","OFF","Cat_Recall_L1",313,"Study","No","3","Cat_Recall_L1","ON","",3000,NA,NA,NA,NA,NA,NA,NA,NA
"A2B7SPYBPF7H8I","Collector",1,336,"2016-06-06T15:52:31-07:00","6",1,"Stimuli/versionAstim.txt","Procedure/versionAproc.txt","Tetris",NA,"OREGANO","","OREGANO","OFF","Cat_Recall_L1",305,"Study","No","3","Cat_Recall_L1","ON","",3000,NA,NA,NA,NA,NA,NA,NA,NA
"A2B7SPYBPF7H8I","Collector",1,337,"2016-06-06T15:52:37-07:00","6",1,"Stimuli/versionAstim.txt","Procedure/versionAproc.txt","Tetris",NA,"SUGAR","","SUGAR","OFF","Cat_Recall_L1",302,"Study","No","3","Cat_Recall_L1","ON","",3000,NA,NA,NA,NA,NA,NA,NA,NA
"A2B7SPYBPF7H8I","Collector",1,338,"2016-06-06T15:52:42-07:00","5",1,"Stimuli/versionAstim.txt","Procedure/versionAproc.txt","Tetris",NA,"SAGE","","SAGE","OFF","Cat_Recall_L1",312,"Study","No","3","Cat_Recall_L1","ON","",3000,NA,NA,NA,NA,NA,NA,NA,NA
"A2B7SPYBPF7H8I","Collector",1,339,"2016-06-06T15:52:48-07:00","6",1,"Stimuli/versionAstim.txt","Procedure/versionAproc.txt","Tetris",NA,"VANILLA","","VANILLA","OFF","Cat_Recall_L1",303,"Study","No","3","Cat_Recall_L1","ON","",3000,NA,NA,NA,NA,NA,NA,NA,NA
"A2B7SPYBPF7H8I","Collector",1,340,"2016-06-06T15:52:54-07:00","6",1,"Stimuli/versionAstim.txt","Procedure/versionAproc.txt","Tetris",NA,"CURRY","","CURRY","OFF","Cat_Recall_L1",311,"Study","No","3","Cat_Recall_L1","ON","",3000,NA,NA,NA,NA,NA,NA,NA,NA
"A2B7SPYBPF7H8I","Collector",1,341,"2016-06-06T15:53:00-07:00","6",1,"Stimuli/versionAstim.txt","Procedure/versionAproc.txt","Tetris",NA,"GINGER","","GINGER","OFF","Cat_Recall_L1",315,"Study","No","3","Cat_Recall_L1","ON","",3000,NA,NA,NA,NA,NA,NA,NA,NA
"A2B7SPYBPF7H8I","Collector",1,342,"2016-06-06T15:53:06-07:00","6",1,"Stimuli/versionAstim.txt","Procedure/versionAproc.txt","Tetris",NA,"BAY LEAVES","","BAY LEAVES","OFF","Cat_Recall_L1",309,"Study","No","3","Cat_Recall_L1","ON","",3000,NA,NA,NA,NA,NA,NA,NA,NA
"A2B7SPYBPF7H8I","Collector",1,343,"2016-06-06T15:53:22-07:00","16",1,"Stimuli/versionAstim.txt","Procedure/versionAproc.txt","Tetris",NA,"n/a","n/a","n/a","n/a","n/a",0,"Instruct","N/A","User","Recall Instructions: Recall the words that you saw from memory by typing them into the dialog box on the next screen. You will have 1 minute. Click the button below to begin.","OFF","",13460,NA,NA,NA,NA,NA,NA,NA,NA
"A2B7SPYBPF7H8I","Collector",1,344,"2016-06-06T15:54:26-07:00","64",1,"Stimuli/versionAstim.txt","Procedure/versionAproc.txt","Tetris",NA,"n/a","n/a","n/a","n/a","n/a",0,"freerecall","N/A","60","Recall now in the box. Spelling will not be counted against you. The computer will advance when your minute is up.","OFF","ginger  <br />  <br /> bay leaf  <br />  <br /> cumin  <br />  <br /> thyme <br />  <br /> onion salt <br />  <br /> cloves <br />  <br /> turmeric <br />  <br /> oregano <br />  <br /> ",60000,2360,39890,NA,NA,NA,NA,NA,NA
"A2B7SPYBPF7H8I","Collector",1,345,"2016-06-06T15:54:32-07:00","6",1,"Stimuli/versionAstim.txt","Procedure/versionAproc.txt","Tetris",NA,"n/a","n/a","n/a","n/a","n/a",0,"Instruct","N/A","User","Click the button below for the next list.","OFF","",2110,NA,NA,NA,NA,NA,NA,NA,NA
"A2B7SPYBPF7H8I","Collector",1,346,"2016-06-06T15:54:38-07:00","6",1,"Stimuli/versionAstim.txt","Procedure/versionAproc.txt","Tetris",NA,"RECORD","","RECORD","OFF","AdHoc_Recall_L2",332,"Study","No","3","AdHoc_Recall_L2","ON","",3000,NA,NA,NA,NA,NA,NA,NA,NA
"A2B7SPYBPF7H8I","Collector",1,347,"2016-06-06T15:54:44-07:00","6",1,"Stimuli/versionAstim.txt","Procedure/versionAproc.txt","Tetris",NA,"TORNADO","","TORNADO","OFF","AdHoc_Recall_L2",335,"Study","No","3","AdHoc_Recall_L2","ON","",3000,NA,NA,NA,NA,NA,NA,NA,NA
"A2B7SPYBPF7H8I","Collector",1,348,"2016-06-06T15:54:50-07:00","6",1,"Stimuli/versionAstim.txt","Procedure/versionAproc.txt","Tetris",NA,"ROTISSERIE","","ROTISSERIE","OFF","AdHoc_Recall_L2",340,"Study","No","3","AdHoc_Recall_L2","ON","",3000,NA,NA,NA,NA,NA,NA,NA,NA
"A2B7SPYBPF7H8I","Collector",1,349,"2016-06-06T15:54:56-07:00","6",1,"Stimuli/versionAstim.txt","Procedure/versionAproc.txt","Tetris",NA,"WINDMILL","","WINDMILL","OFF","AdHoc_Recall_L2",339,"Study","No","3","AdHoc_Recall_L2","ON","",3000,NA,NA,NA,NA,NA,NA,NA,NA
"A2B7SPYBPF7H8I","Collector",1,350,"2016-06-06T15:55:02-07:00","6",1,"Stimuli/versionAstim.txt","Procedure/versionAproc.txt","Tetris",NA,"SPIRAL","","SPIRAL","OFF","AdHoc_Recall_L2",337,"Study","No","3","AdHoc_Recall_L2","ON","",3000,NA,NA,NA,NA,NA,NA,NA,NA
"A2B7SPYBPF7H8I","Collector",1,351,"2016-06-06T15:55:07-07:00","5",1,"Stimuli/versionAstim.txt","Procedure/versionAproc.txt","Tetris",NA,"ROULETTE","","ROULETTE","OFF","AdHoc_Recall_L2",330,"Study","No","3","AdHoc_Recall_L2","ON","",3000,NA,NA,NA,NA,NA,NA,NA,NA
"A2B7SPYBPF7H8I","Collector",1,352,"2016-06-06T15:55:13-07:00","6",1,"Stimuli/versionAstim.txt","Procedure/versionAproc.txt","Tetris",NA,"BOTTLE","","BOTTLE","OFF","AdHoc_Recall_L2",324,"Study","No","3","AdHoc_Recall_L2","ON","",3000,NA,NA,NA,NA,NA,NA,NA,NA
"A2B7SPYBPF7H8I","Collector",1,353,"2016-06-06T15:55:20-07:00","7",1,"Stimuli/versionAstim.txt","Procedure/versionAproc.txt","Tetris",NA,"YO-YO","","YO-YO","OFF","AdHoc_Recall_L2",341,"Study","No","3","AdHoc_Recall_L2","ON","",3000,NA,NA,NA,NA,NA,NA,NA,NA
"A2B7SPYBPF7H8I","Collector",1,354,"2016-06-06T15:55:40-07:00","20",1,"Stimuli/versionAstim.txt","Procedure/versionAproc.txt","Tetris",NA,"GEAR","","GEAR","OFF","AdHoc_Recall_L2",329,"Study","No","3","AdHoc_Recall_L2","ON","",3000,NA,NA,NA,NA,NA,NA,NA,NA
"A2B7SPYBPF7H8I","Collector",1,355,"2016-06-06T15:55:46-07:00","6",1,"Stimuli/versionAstim.txt","Procedure/versionAproc.txt","Tetris",NA,"HURRICANE","","HURRICANE","OFF","AdHoc_Recall_L2",336,"Study","No","3","AdHoc_Recall_L2","ON","",3000,NA,NA,NA,NA,NA,NA,NA,NA
"A2B7SPYBPF7H8I","Collector",1,356,"2016-06-06T15:55:51-07:00","5",1,"Stimuli/versionAstim.txt","Procedure/versionAproc.txt","Tetris",NA,"SPHERE","","SPHERE","OFF","AdHoc_Recall_L2",327,"Study","No","3","AdHoc_Recall_L2","ON","",3000,NA,NA,NA,NA,NA,NA,NA,NA
"A2B7SPYBPF7H8I","Collector",1,357,"2016-06-06T15:55:57-07:00","6",1,"Stimuli/versionAstim.txt","Procedure/versionAproc.txt","Tetris",NA,"SATELLITE","","SATELLITE","OFF","AdHoc_Recall_L2",323,"Study","No","3","AdHoc_Recall_L2","ON","",3000,NA,NA,NA,NA,NA,NA,NA,NA
"A2B7SPYBPF7H8I","Collector",1,358,"2016-06-06T15:56:03-07:00","6",1,"Stimuli/versionAstim.txt","Procedure/versionAproc.txt","Tetris",NA,"BICYCLE","","BICYCLE","OFF","AdHoc_Recall_L2",333,"Study","No","3","AdHoc_Recall_L2","ON","",3000,NA,NA,NA,NA,NA,NA,NA,NA
"A2B7SPYBPF7H8I","Collector",1,359,"2016-06-06T15:56:09-07:00","6",1,"Stimuli/versionAstim.txt","Procedure/versionAproc.txt","Tetris",NA,"DREIDEL","","DREIDEL","OFF","AdHoc_Recall_L2",325,"Study","No","3","AdHoc_Recall_L2","ON","",3000,NA,NA,NA,NA,NA,NA,NA,NA
"A2B7SPYBPF7H8I","Collector",1,360,"2016-06-06T15:56:14-07:00","5",1,"Stimuli/versionAstim.txt","Procedure/versionAproc.txt","Tetris",NA,"ORB","","ORB","OFF","AdHoc_Recall_L2",328,"Study","No","3","AdHoc_Recall_L2","ON","",3000,NA,NA,NA,NA,NA,NA,NA,NA
"A2B7SPYBPF7H8I","Collector",1,361,"2016-06-06T15:56:21-07:00","7",1,"Stimuli/versionAstim.txt","Procedure/versionAproc.txt","Tetris",NA,"TOP","","TOP","OFF","AdHoc_Recall_L2",326,"Study","No","3","AdHoc_Recall_L2","ON","",3000,NA,NA,NA,NA,NA,NA,NA,NA
"A2B7SPYBPF7H8I","Collector",1,362,"2016-06-06T15:56:26-07:00","5",1,"Stimuli/versionAstim.txt","Procedure/versionAproc.txt","Tetris",NA,"GYROSCOPE","","GYROSCOPE","OFF","AdHoc_Recall_L2",331,"Study","No","3","AdHoc_Recall_L2","ON","",3000,NA,NA,NA,NA,NA,NA,NA,NA
"A2B7SPYBPF7H8I","Collector",1,363,"2016-06-06T15:56:33-07:00","7",1,"Stimuli/versionAstim.txt","Procedure/versionAproc.txt","Tetris",NA,"PROPELLER","","PROPELLER","OFF","AdHoc_Recall_L2",322,"Study","No","3","AdHoc_Recall_L2","ON","",3000,NA,NA,NA,NA,NA,NA,NA,NA
"A2B7SPYBPF7H8I","Collector",1,364,"2016-06-06T15:56:41-07:00","8",1,"Stimuli/versionAstim.txt","Procedure/versionAproc.txt","Tetris",NA,"SPOOL","","SPOOL","OFF","AdHoc_Recall_L2",334,"Study","No","3","AdHoc_Recall_L2","ON","",3000,NA,NA,NA,NA,NA,NA,NA,NA
"A2B7SPYBPF7H8I","Collector",1,365,"2016-06-06T15:56:47-07:00","6",1,"Stimuli/versionAstim.txt","Procedure/versionAproc.txt","Tetris",NA,"PINWHEEL","","PINWHEEL","OFF","AdHoc_Recall_L2",338,"Study","No","3","AdHoc_Recall_L2","ON","",3000,NA,NA,NA,NA,NA,NA,NA,NA
"A2B7SPYBPF7H8I","Collector",1,366,"2016-06-06T15:56:53-07:00","6",1,"Stimuli/versionAstim.txt","Procedure/versionAproc.txt","Tetris",NA,"n/a","n/a","n/a","n/a","n/a",0,"Instruct","N/A","User","Recall Instructions: Recall the words that you saw from memory by typing them into the dialog box on the next screen. You will have 1 minute. Click the button below to begin.","OFF","",3980,NA,NA,NA,NA,NA,NA,NA,NA
"A2B7SPYBPF7H8I","Collector",1,367,"2016-06-06T15:57:57-07:00","64",1,"Stimuli/versionAstim.txt","Procedure/versionAproc.txt","Tetris",NA,"n/a","n/a","n/a","n/a","n/a",0,"freerecall","N/A","60","Recall now in the box. Spelling will not be counted against you. The computer will advance when your minute is up.","OFF","spool <br />  <br /> pinwheel <br />  <br /> tornado <br />  <br /> hurricane <br />  <br /> satellite <br />  <br />  <br />  <br /> ",60000,1620,35570,NA,NA,NA,NA,NA,NA
"A2B7SPYBPF7H8I","Collector",1,368,"2016-06-06T15:58:05-07:00","8",1,"Stimuli/versionAstim.txt","Procedure/versionAproc.txt","Tetris",NA,"n/a","n/a","n/a","n/a","n/a",0,"Instruct","N/A","User","Click the button below for the next list.","OFF","",4910,NA,NA,NA,NA,NA,NA,NA,NA
"A2B7SPYBPF7H8I","Collector",1,369,"2016-06-06T15:58:10-07:00","5",1,"Stimuli/versionAstim.txt","Procedure/versionAproc.txt","Tetris",NA,"CANDY","","CANDY","OFF","Unrel_Recall_L3",348,"Study","No","3","Unrel_Recall_L3","ON","",3000,NA,NA,NA,NA,NA,NA,NA,NA
"A2B7SPYBPF7H8I","Collector",1,370,"2016-06-06T15:58:16-07:00","6",1,"Stimuli/versionAstim.txt","Procedure/versionAproc.txt","Tetris",NA,"HERMIT","","HERMIT","OFF","Unrel_Recall_L3",351,"Study","No","3","Unrel_Recall_L3","ON","",3000,NA,NA,NA,NA,NA,NA,NA,NA
"A2B7SPYBPF7H8I","Collector",1,371,"2016-06-06T15:58:23-07:00","7",1,"Stimuli/versionAstim.txt","Procedure/versionAproc.txt","Tetris",NA,"CANTEEN","","CANTEEN","OFF","Unrel_Recall_L3",361,"Study","No","3","Unrel_Recall_L3","ON","",3000,NA,NA,NA,NA,NA,NA,NA,NA
"A2B7SPYBPF7H8I","Collector",1,372,"2016-06-06T15:58:28-07:00","5",1,"Stimuli/versionAstim.txt","Procedure/versionAproc.txt","Tetris",NA,"MANUAL","","MANUAL","OFF","Unrel_Recall_L3",357,"Study","No","3","Unrel_Recall_L3","ON","",3000,NA,NA,NA,NA,NA,NA,NA,NA
"A2B7SPYBPF7H8I","Collector",1,373,"2016-06-06T15:58:34-07:00","6",1,"Stimuli/versionAstim.txt","Procedure/versionAproc.txt","Tetris",NA,"METEOR","","METEOR","OFF","Unrel_Recall_L3",356,"Study","No","3","Unrel_Recall_L3","ON","",3000,NA,NA,NA,NA,NA,NA,NA,NA
"A2B7SPYBPF7H8I","Collector",1,374,"2016-06-06T15:58:40-07:00","6",1,"Stimuli/versionAstim.txt","Procedure/versionAproc.txt","Tetris",NA,"BISHOP","","BISHOP","OFF","Unrel_Recall_L3",350,"Study","No","3","Unrel_Recall_L3","ON","",3000,NA,NA,NA,NA,NA,NA,NA,NA
"A2B7SPYBPF7H8I","Collector",1,375,"2016-06-06T15:58:46-07:00","6",1,"Stimuli/versionAstim.txt","Procedure/versionAproc.txt","Tetris",NA,"ORPHAN","","ORPHAN","OFF","Unrel_Recall_L3",355,"Study","No","3","Unrel_Recall_L3","ON","",3000,NA,NA,NA,NA,NA,NA,NA,NA
"A2B7SPYBPF7H8I","Collector",1,376,"2016-06-06T15:58:51-07:00","5",1,"Stimuli/versionAstim.txt","Procedure/versionAproc.txt","Tetris",NA,"INDEX","","INDEX","OFF","Unrel_Recall_L3",360,"Study","No","3","Unrel_Recall_L3","ON","",3000,NA,NA,NA,NA,NA,NA,NA,NA
"A2B7SPYBPF7H8I","Collector",1,377,"2016-06-06T15:58:57-07:00","6",1,"Stimuli/versionAstim.txt","Procedure/versionAproc.txt","Tetris",NA,"WHALE","","WHALE","OFF","Unrel_Recall_L3",353,"Study","No","3","Unrel_Recall_L3","ON","",3000,NA,NA,NA,NA,NA,NA,NA,NA
"A2B7SPYBPF7H8I","Collector",1,378,"2016-06-06T15:59:02-07:00","5",1,"Stimuli/versionAstim.txt","Procedure/versionAproc.txt","Tetris",NA,"HELMET","","HELMET","OFF","Unrel_Recall_L3",346,"Study","No","3","Unrel_Recall_L3","ON","",3000,NA,NA,NA,NA,NA,NA,NA,NA
"A2B7SPYBPF7H8I","Collector",1,379,"2016-06-06T15:59:08-07:00","6",1,"Stimuli/versionAstim.txt","Procedure/versionAproc.txt","Tetris",NA,"DEBT","","DEBT","OFF","Unrel_Recall_L3",343,"Study","No","3","Unrel_Recall_L3","ON","",3000,NA,NA,NA,NA,NA,NA,NA,NA
"A2B7SPYBPF7H8I","Collector",1,380,"2016-06-06T15:59:14-07:00","6",1,"Stimuli/versionAstim.txt","Procedure/versionAproc.txt","Tetris",NA,"ACRE","","ACRE","OFF","Unrel_Recall_L3",352,"Study","No","3","Unrel_Recall_L3","ON","",3000,NA,NA,NA,NA,NA,NA,NA,NA
