"X.Username","X.ExperimentName","X.Session","X.Trial","X.Date","X.TimeDif","X.Condition.Number","X.Stimuli.File","X.Order.File","X.Condition.Description","X.Condition.Notes","Stimuli.Target","Stimuli.Cue","Stimuli.Answer","Stimuli.Shuffle","Stimuli.Stimuli.Notes","Procedure.Item","Procedure.Trial.Type","Procedure.Post.Trial","Procedure.Timing","Procedure.Procedure.Notes","Procedure.Shuffle","Response.Response1","Response.RT","Response.RTkey","Response.RTlast","Response.strictAcc","Response.lenientAcc","Response.Accuracy","Response.JOL","Response.postRT","Response.postRTkey"
"A2RAC1CU8YLGPC","Collector",1,1,"2016-05-27T11:51:13-07:00","-",1,"Stimuli/versionCstim.txt","Procedure/versionCproc.txt","Tetris",NA,"n/a","n/a","n/a","n/a","n/a",0,"Instruct","N/A","User","Click the button below for the first list.","Off","",147060,NA,NA,NA,NA,NA,NA,NA,NA
"A2RAC1CU8YLGPC","Collector",1,2,"2016-05-27T11:51:18-07:00","5",1,"Stimuli/versionCstim.txt","Procedure/versionCproc.txt","Tetris",NA,"HORSERADISH","","HORSERADISH","OFF","Cat_Recall_L1",18,"Study","No","3","Cat_Recall_L1","ON","",3000,NA,NA,NA,NA,NA,NA,NA,NA
"A2RAC1CU8YLGPC","Collector",1,3,"2016-05-27T11:51:22-07:00","4",1,"Stimuli/versionCstim.txt","Procedure/versionCproc.txt","Tetris",NA,"CUMIN","","CUMIN","OFF","Cat_Recall_L1",16,"Study","No","3","Cat_Recall_L1","ON","",3000,NA,NA,NA,NA,NA,NA,NA,NA
"A2RAC1CU8YLGPC","Collector",1,4,"2016-05-27T11:51:27-07:00","5",1,"Stimuli/versionCstim.txt","Procedure/versionCproc.txt","Tetris",NA,"OREGANO","","OREGANO","OFF","Cat_Recall_L1",5,"Study","No","3","Cat_Recall_L1","ON","",3000,NA,NA,NA,NA,NA,NA,NA,NA
"A2RAC1CU8YLGPC","Collector",1,5,"2016-05-27T11:51:32-07:00","5",1,"Stimuli/versionCstim.txt","Procedure/versionCproc.txt","Tetris",NA,"CHIVES","","CHIVES","OFF","Cat_Recall_L1",14,"Study","No","3","Cat_Recall_L1","ON","",3000,NA,NA,NA,NA,NA,NA,NA,NA
"A2RAC1CU8YLGPC","Collector",1,6,"2016-05-27T11:51:37-07:00","5",1,"Stimuli/versionCstim.txt","Procedure/versionCproc.txt","Tetris",NA,"ONION SALT","","ONION SALT","OFF","Cat_Recall_L1",7,"Study","No","3","Cat_Recall_L1","ON","",3000,NA,NA,NA,NA,NA,NA,NA,NA
"A2RAC1CU8YLGPC","Collector",1,7,"2016-05-27T11:51:43-07:00","6",1,"Stimuli/versionCstim.txt","Procedure/versionCproc.txt","Tetris",NA,"THYME","","THYME","OFF","Cat_Recall_L1",8,"Study","No","3","Cat_Recall_L1","ON","",3000,NA,NA,NA,NA,NA,NA,NA,NA
"A2RAC1CU8YLGPC","Collector",1,8,"2016-05-27T11:51:48-07:00","5",1,"Stimuli/versionCstim.txt","Procedure/versionCproc.txt","Tetris",NA,"GINGER","","GINGER","OFF","Cat_Recall_L1",15,"Study","No","3","Cat_Recall_L1","ON","",3000,NA,NA,NA,NA,NA,NA,NA,NA
"A2RAC1CU8YLGPC","Collector",1,9,"2016-05-27T11:51:53-07:00","5",1,"Stimuli/versionCstim.txt","Procedure/versionCproc.txt","Tetris",NA,"BAY LEAVES","","BAY LEAVES","OFF","Cat_Recall_L1",9,"Study","No","3","Cat_Recall_L1","ON","",3000,NA,NA,NA,NA,NA,NA,NA,NA
"A2RAC1CU8YLGPC","Collector",1,10,"2016-05-27T11:51:58-07:00","5",1,"Stimuli/versionCstim.txt","Procedure/versionCproc.txt","Tetris",NA,"BASIL","","BASIL","OFF","Cat_Recall_L1",20,"Study","No","3","Cat_Recall_L1","ON","",3000,NA,NA,NA,NA,NA,NA,NA,NA
"A2RAC1CU8YLGPC","Collector",1,11,"2016-05-27T11:52:03-07:00","5",1,"Stimuli/versionCstim.txt","Procedure/versionCproc.txt","Tetris",NA,"VANILLA","","VANILLA","OFF","Cat_Recall_L1",3,"Study","No","3","Cat_Recall_L1","ON","",3000,NA,NA,NA,NA,NA,NA,NA,NA
"A2RAC1CU8YLGPC","Collector",1,12,"2016-05-27T11:53:42-07:00","99",1,"Stimuli/versionCstim.txt","Procedure/versionCproc.txt","Tetris",NA,"SUGAR","","SUGAR","OFF","Cat_Recall_L1",2,"Study","No","3","Cat_Recall_L1","ON","",NA,NA,NA,NA,NA,NA,NA,NA,NA
"A2RAC1CU8YLGPC","Collector",1,13,"2016-05-27T11:53:55-07:00","13",1,"Stimuli/versionCstim.txt","Procedure/versionCproc.txt","Tetris",NA,"ALMOND","","ALMOND","OFF","Cat_Recall_L1",10,"Study","No","3","Cat_Recall_L1","ON","",3000,NA,NA,NA,NA,NA,NA,NA,NA
"A2RAC1CU8YLGPC","Collector",1,14,"2016-05-27T11:54:00-07:00","5",1,"Stimuli/versionCstim.txt","Procedure/versionCproc.txt","Tetris",NA,"CLOVES","","CLOVES","OFF","Cat_Recall_L1",4,"Study","No","3","Cat_Recall_L1","ON","",3000,NA,NA,NA,NA,NA,NA,NA,NA
"A2RAC1CU8YLGPC","Collector",1,15,"2016-05-27T11:54:04-07:00","4",1,"Stimuli/versionCstim.txt","Procedure/versionCproc.txt","Tetris",NA,"NUTMEG","","NUTMEG","OFF","Cat_Recall_L1",6,"Study","No","3","Cat_Recall_L1","ON","",3000,NA,NA,NA,NA,NA,NA,NA,NA
"A2RAC1CU8YLGPC","Collector",1,16,"2016-05-27T11:54:09-07:00","5",1,"Stimuli/versionCstim.txt","Procedure/versionCproc.txt","Tetris",NA,"CURRY","","CURRY","OFF","Cat_Recall_L1",11,"Study","No","3","Cat_Recall_L1","ON","",3000,NA,NA,NA,NA,NA,NA,NA,NA
"A2RAC1CU8YLGPC","Collector",1,17,"2016-05-27T11:54:14-07:00","5",1,"Stimuli/versionCstim.txt","Procedure/versionCproc.txt","Tetris",NA,"SAGE","","SAGE","OFF","Cat_Recall_L1",12,"Study","No","3","Cat_Recall_L1","ON","",3000,NA,NA,NA,NA,NA,NA,NA,NA
"A2RAC1CU8YLGPC","Collector",1,18,"2016-05-27T11:54:20-07:00","6",1,"Stimuli/versionCstim.txt","Procedure/versionCproc.txt","Tetris",NA,"CELERY SEED","","CELERY SEED","OFF","Cat_Recall_L1",19,"Study","No","3","Cat_Recall_L1","ON","",3000,NA,NA,NA,NA,NA,NA,NA,NA
"A2RAC1CU8YLGPC","Collector",1,19,"2016-05-27T11:54:25-07:00","5",1,"Stimuli/versionCstim.txt","Procedure/versionCproc.txt","Tetris",NA,"ROSEMARY","","ROSEMARY","OFF","Cat_Recall_L1",13,"Study","No","3","Cat_Recall_L1","ON","",3000,NA,NA,NA,NA,NA,NA,NA,NA
"A2RAC1CU8YLGPC","Collector",1,20,"2016-05-27T11:54:30-07:00","5",1,"Stimuli/versionCstim.txt","Procedure/versionCproc.txt","Tetris",NA,"CHILI POWDER","","CHILI POWDER","OFF","Cat_Recall_L1",17,"Study","No","3","Cat_Recall_L1","ON","",3000,NA,NA,NA,NA,NA,NA,NA,NA
"A2RAC1CU8YLGPC","Collector",1,21,"2016-05-27T11:54:35-07:00","5",1,"Stimuli/versionCstim.txt","Procedure/versionCproc.txt","Tetris",NA,"TURMERIC","","TURMERIC","OFF","Cat_Recall_L1",21,"Study","No","3","Cat_Recall_L1","ON","",3000,NA,NA,NA,NA,NA,NA,NA,NA
"A2RAC1CU8YLGPC","Collector",1,22,"2016-05-27T11:55:00-07:00","25",1,"Stimuli/versionCstim.txt","Procedure/versionCproc.txt","Tetris",NA,"n/a","n/a","n/a","n/a","n/a",0,"Instruct","N/A","User","Recall Instructions: Recall the words that you saw from memory by typing them into the dialog box on the next screen. You will have 1 minute. Click the button below to begin.","OFF","",22800,NA,NA,NA,NA,NA,NA,NA,NA
"A2RAC1CU8YLGPC","Collector",1,23,"2016-05-27T11:56:02-07:00","62",1,"Stimuli/versionCstim.txt","Procedure/versionCproc.txt","Tetris",NA,"n/a","n/a","n/a","n/a","n/a",0,"freerecall","N/A","60","Recall now in the box. Spelling will not be counted against you. The computer will advance when your minute is up.","OFF","cumin <br />  <br /> oregano, ginger <br />  <br /> sugar <br />  <br /> chili powder <br />  <br /> leaves <br />  <br /> basil <br />  <br /> vanilla <br />  <br /> almond <br />  <br /> curry <br />  <br /> inion salt <br />  <br /> ",60000,1520,57470,NA,NA,NA,NA,NA,NA
"A2RAC1CU8YLGPC","Collector",1,24,"2016-05-27T11:56:07-07:00","5",1,"Stimuli/versionCstim.txt","Procedure/versionCproc.txt","Tetris",NA,"n/a","n/a","n/a","n/a","n/a",0,"Instruct","N/A","User","Click the button below for the next list.","OFF","",3060,NA,NA,NA,NA,NA,NA,NA,NA
"A2RAC1CU8YLGPC","Collector",1,25,"2016-05-27T11:56:15-07:00","8",1,"Stimuli/versionCstim.txt","Procedure/versionCproc.txt","Tetris",NA,"BOTTLE","","BOTTLE","OFF","AdHoc_Recall_L2",24,"Study","No","3","AdHoc_Recall_L2","ON","",3000,NA,NA,NA,NA,NA,NA,NA,NA
"A2RAC1CU8YLGPC","Collector",1,26,"2016-05-27T11:56:20-07:00","5",1,"Stimuli/versionCstim.txt","Procedure/versionCproc.txt","Tetris",NA,"YO-YO","","YO-YO","OFF","AdHoc_Recall_L2",41,"Study","No","3","AdHoc_Recall_L2","ON","",3000,NA,NA,NA,NA,NA,NA,NA,NA
"A2RAC1CU8YLGPC","Collector",1,27,"2016-05-27T11:56:24-07:00","4",1,"Stimuli/versionCstim.txt","Procedure/versionCproc.txt","Tetris",NA,"WINDMILL","","WINDMILL","OFF","AdHoc_Recall_L2",39,"Study","No","3","AdHoc_Recall_L2","ON","",3000,NA,NA,NA,NA,NA,NA,NA,NA
"A2RAC1CU8YLGPC","Collector",1,28,"2016-05-27T11:56:29-07:00","5",1,"Stimuli/versionCstim.txt","Procedure/versionCproc.txt","Tetris",NA,"ROULETTE","","ROULETTE","OFF","AdHoc_Recall_L2",30,"Study","No","3","AdHoc_Recall_L2","ON","",3000,NA,NA,NA,NA,NA,NA,NA,NA
"A2RAC1CU8YLGPC","Collector",1,29,"2016-05-27T11:56:34-07:00","5",1,"Stimuli/versionCstim.txt","Procedure/versionCproc.txt","Tetris",NA,"GYROSCOPE","","GYROSCOPE","OFF","AdHoc_Recall_L2",31,"Study","No","3","AdHoc_Recall_L2","ON","",3000,NA,NA,NA,NA,NA,NA,NA,NA
"A2RAC1CU8YLGPC","Collector",1,30,"2016-05-27T11:56:39-07:00","5",1,"Stimuli/versionCstim.txt","Procedure/versionCproc.txt","Tetris",NA,"ORB","","ORB","OFF","AdHoc_Recall_L2",28,"Study","No","3","AdHoc_Recall_L2","ON","",3000,NA,NA,NA,NA,NA,NA,NA,NA
"A2RAC1CU8YLGPC","Collector",1,31,"2016-05-27T11:56:44-07:00","5",1,"Stimuli/versionCstim.txt","Procedure/versionCproc.txt","Tetris",NA,"RECORD","","RECORD","OFF","AdHoc_Recall_L2",32,"Study","No","3","AdHoc_Recall_L2","ON","",3000,NA,NA,NA,NA,NA,NA,NA,NA
"A2RAC1CU8YLGPC","Collector",1,32,"2016-05-27T11:56:50-07:00","6",1,"Stimuli/versionCstim.txt","Procedure/versionCproc.txt","Tetris",NA,"DREIDEL","","DREIDEL","OFF","AdHoc_Recall_L2",25,"Study","No","3","AdHoc_Recall_L2","ON","",3000,NA,NA,NA,NA,NA,NA,NA,NA
"A2RAC1CU8YLGPC","Collector",1,33,"2016-05-27T11:56:54-07:00","4",1,"Stimuli/versionCstim.txt","Procedure/versionCproc.txt","Tetris",NA,"TORNADO","","TORNADO","OFF","AdHoc_Recall_L2",35,"Study","No","3","AdHoc_Recall_L2","ON","",3000,NA,NA,NA,NA,NA,NA,NA,NA
"A2RAC1CU8YLGPC","Collector",1,34,"2016-05-27T11:56:59-07:00","5",1,"Stimuli/versionCstim.txt","Procedure/versionCproc.txt","Tetris",NA,"SPOOL","","SPOOL","OFF","AdHoc_Recall_L2",34,"Study","No","3","AdHoc_Recall_L2","ON","",3000,NA,NA,NA,NA,NA,NA,NA,NA
"A2RAC1CU8YLGPC","Collector",1,35,"2016-05-27T11:57:04-07:00","5",1,"Stimuli/versionCstim.txt","Procedure/versionCproc.txt","Tetris",NA,"BICYCLE","","BICYCLE","OFF","AdHoc_Recall_L2",33,"Study","No","3","AdHoc_Recall_L2","ON","",3000,NA,NA,NA,NA,NA,NA,NA,NA
"A2RAC1CU8YLGPC","Collector",1,36,"2016-05-27T11:57:09-07:00","5",1,"Stimuli/versionCstim.txt","Procedure/versionCproc.txt","Tetris",NA,"SPIRAL","","SPIRAL","OFF","AdHoc_Recall_L2",37,"Study","No","3","AdHoc_Recall_L2","ON","",3000,NA,NA,NA,NA,NA,NA,NA,NA
"A2RAC1CU8YLGPC","Collector",1,37,"2016-05-27T11:57:14-07:00","5",1,"Stimuli/versionCstim.txt","Procedure/versionCproc.txt","Tetris",NA,"ROTISSERIE","","ROTISSERIE","OFF","AdHoc_Recall_L2",40,"Study","No","3","AdHoc_Recall_L2","ON","",3000,NA,NA,NA,NA,NA,NA,NA,NA
"A2RAC1CU8YLGPC","Collector",1,38,"2016-05-27T11:57:19-07:00","5",1,"Stimuli/versionCstim.txt","Procedure/versionCproc.txt","Tetris",NA,"SATELLITE","","SATELLITE","OFF","AdHoc_Recall_L2",23,"Study","No","3","AdHoc_Recall_L2","ON","",3000,NA,NA,NA,NA,NA,NA,NA,NA
"A2RAC1CU8YLGPC","Collector",1,39,"2016-05-27T11:57:24-07:00","5",1,"Stimuli/versionCstim.txt","Procedure/versionCproc.txt","Tetris",NA,"SPHERE","","SPHERE","OFF","AdHoc_Recall_L2",27,"Study","No","3","AdHoc_Recall_L2","ON","",3000,NA,NA,NA,NA,NA,NA,NA,NA
"A2RAC1CU8YLGPC","Collector",1,40,"2016-05-27T11:57:28-07:00","4",1,"Stimuli/versionCstim.txt","Procedure/versionCproc.txt","Tetris",NA,"PINWHEEL","","PINWHEEL","OFF","AdHoc_Recall_L2",38,"Study","No","3","AdHoc_Recall_L2","ON","",3000,NA,NA,NA,NA,NA,NA,NA,NA
"A2RAC1CU8YLGPC","Collector",1,41,"2016-05-27T11:57:33-07:00","5",1,"Stimuli/versionCstim.txt","Procedure/versionCproc.txt","Tetris",NA,"HURRICANE","","HURRICANE","OFF","AdHoc_Recall_L2",36,"Study","No","3","AdHoc_Recall_L2","ON","",3000,NA,NA,NA,NA,NA,NA,NA,NA
"A2RAC1CU8YLGPC","Collector",1,42,"2016-05-27T11:57:38-07:00","5",1,"Stimuli/versionCstim.txt","Procedure/versionCproc.txt","Tetris",NA,"GEAR","","GEAR","OFF","AdHoc_Recall_L2",29,"Study","No","3","AdHoc_Recall_L2","ON","",3000,NA,NA,NA,NA,NA,NA,NA,NA
"A2RAC1CU8YLGPC","Collector",1,43,"2016-05-27T11:57:43-07:00","5",1,"Stimuli/versionCstim.txt","Procedure/versionCproc.txt","Tetris",NA,"PROPELLER","","PROPELLER","OFF","AdHoc_Recall_L2",22,"Study","No","3","AdHoc_Recall_L2","ON","",3000,NA,NA,NA,NA,NA,NA,NA,NA
"A2RAC1CU8YLGPC","Collector",1,44,"2016-05-27T11:57:48-07:00","5",1,"Stimuli/versionCstim.txt","Procedure/versionCproc.txt","Tetris",NA,"TOP","","TOP","OFF","AdHoc_Recall_L2",26,"Study","No","3","AdHoc_Recall_L2","ON","",3000,NA,NA,NA,NA,NA,NA,NA,NA
"A2RAC1CU8YLGPC","Collector",1,45,"2016-05-27T11:57:55-07:00","7",1,"Stimuli/versionCstim.txt","Procedure/versionCproc.txt","Tetris",NA,"n/a","n/a","n/a","n/a","n/a",0,"Instruct","N/A","User","Recall Instructions: Recall the words that you saw from memory by typing them into the dialog box on the next screen. You will have 1 minute. Click the button below to begin.","OFF","",5710,NA,NA,NA,NA,NA,NA,NA,NA
"A2RAC1CU8YLGPC","Collector",1,46,"2016-05-27T11:58:58-07:00","63",1,"Stimuli/versionCstim.txt","Procedure/versionCproc.txt","Tetris",NA,"n/a","n/a","n/a","n/a","n/a",0,"freerecall","N/A","60","Recall now in the box. Spelling will not be counted against you. The computer will advance when your minute is up.","OFF","botte <br />  <br /> yo_yo <br />  <br /> bicycle <br />  <br /> tornado <br />  <br /> top <br />  <br /> hurricane <br />  <br /> orb <br />  <br /> record <br />  <br /> satellite",60000,1220,41010,NA,NA,NA,NA,NA,NA
"A2RAC1CU8YLGPC","Collector",1,47,"2016-05-27T11:59:01-07:00","3",1,"Stimuli/versionCstim.txt","Procedure/versionCproc.txt","Tetris",NA,"n/a","n/a","n/a","n/a","n/a",0,"Instruct","N/A","User","Click the button below for the next list.","OFF","",1480,NA,NA,NA,NA,NA,NA,NA,NA
"A2RAC1CU8YLGPC","Collector",1,48,"2016-05-27T11:59:06-07:00","5",1,"Stimuli/versionCstim.txt","Procedure/versionCproc.txt","Tetris",NA,"WAX","","WAX","OFF","Unrel_Recall_L3",42,"Study","No","3","Unrel_Recall_L3","ON","",3000,NA,NA,NA,NA,NA,NA,NA,NA
"A2RAC1CU8YLGPC","Collector",1,49,"2016-05-27T11:59:11-07:00","5",1,"Stimuli/versionCstim.txt","Procedure/versionCproc.txt","Tetris",NA,"HARVEST","","HARVEST","OFF","Unrel_Recall_L3",59,"Study","No","3","Unrel_Recall_L3","ON","",3000,NA,NA,NA,NA,NA,NA,NA,NA
"A2RAC1CU8YLGPC","Collector",1,50,"2016-05-27T11:59:16-07:00","5",1,"Stimuli/versionCstim.txt","Procedure/versionCproc.txt","Tetris",NA,"ACRE","","ACRE","OFF","Unrel_Recall_L3",52,"Study","No","3","Unrel_Recall_L3","ON","",3000,NA,NA,NA,NA,NA,NA,NA,NA
"A2RAC1CU8YLGPC","Collector",1,51,"2016-05-27T11:59:22-07:00","6",1,"Stimuli/versionCstim.txt","Procedure/versionCproc.txt","Tetris",NA,"DESERT","","DESERT","OFF","Unrel_Recall_L3",47,"Study","No","3","Unrel_Recall_L3","ON","",3000,NA,NA,NA,NA,NA,NA,NA,NA
"A2RAC1CU8YLGPC","Collector",1,52,"2016-05-27T11:59:27-07:00","5",1,"Stimuli/versionCstim.txt","Procedure/versionCproc.txt","Tetris",NA,"DEBT","","DEBT","OFF","Unrel_Recall_L3",43,"Study","No","3","Unrel_Recall_L3","ON","",3000,NA,NA,NA,NA,NA,NA,NA,NA
"A2RAC1CU8YLGPC","Collector",1,53,"2016-05-27T11:59:32-07:00","5",1,"Stimuli/versionCstim.txt","Procedure/versionCproc.txt","Tetris",NA,"EMPRESS","","EMPRESS","OFF","Unrel_Recall_L3",44,"Study","No","3","Unrel_Recall_L3","ON","",3000,NA,NA,NA,NA,NA,NA,NA,NA
"A2RAC1CU8YLGPC","Collector",1,54,"2016-05-27T11:59:37-07:00","5",1,"Stimuli/versionCstim.txt","Procedure/versionCproc.txt","Tetris",NA,"ORPHAN","","ORPHAN","OFF","Unrel_Recall_L3",55,"Study","No","3","Unrel_Recall_L3","ON","",3000,NA,NA,NA,NA,NA,NA,NA,NA
"A2RAC1CU8YLGPC","Collector",1,55,"2016-05-27T11:59:41-07:00","4",1,"Stimuli/versionCstim.txt","Procedure/versionCproc.txt","Tetris",NA,"JAM","","JAM","OFF","Unrel_Recall_L3",54,"Study","No","3","Unrel_Recall_L3","ON","",3000,NA,NA,NA,NA,NA,NA,NA,NA
"A2RAC1CU8YLGPC","Collector",1,56,"2016-05-27T11:59:46-07:00","5",1,"Stimuli/versionCstim.txt","Procedure/versionCproc.txt","Tetris",NA,"BISHOP","","BISHOP","OFF","Unrel_Recall_L3",50,"Study","No","3","Unrel_Recall_L3","ON","",3000,NA,NA,NA,NA,NA,NA,NA,NA
"A2RAC1CU8YLGPC","Collector",1,57,"2016-05-27T11:59:51-07:00","5",1,"Stimuli/versionCstim.txt","Procedure/versionCproc.txt","Tetris",NA,"KEG","","KEG","OFF","Unrel_Recall_L3",58,"Study","No","3","Unrel_Recall_L3","ON","",3000,NA,NA,NA,NA,NA,NA,NA,NA
"A2RAC1CU8YLGPC","Collector",1,58,"2016-05-27T11:59:56-07:00","5",1,"Stimuli/versionCstim.txt","Procedure/versionCproc.txt","Tetris",NA,"MANUAL","","MANUAL","OFF","Unrel_Recall_L3",57,"Study","No","3","Unrel_Recall_L3","ON","",3000,NA,NA,NA,NA,NA,NA,NA,NA
"A2RAC1CU8YLGPC","Collector",1,59,"2016-05-27T12:00:01-07:00","5",1,"Stimuli/versionCstim.txt","Procedure/versionCproc.txt","Tetris",NA,"HELMET","","HELMET","OFF","Unrel_Recall_L3",46,"Study","No","3","Unrel_Recall_L3","ON","",3000,NA,NA,NA,NA,NA,NA,NA,NA
"A2RAC1CU8YLGPC","Collector",1,60,"2016-05-27T12:00:06-07:00","5",1,"Stimuli/versionCstim.txt","Procedure/versionCproc.txt","Tetris",NA,"WHALE","","WHALE","OFF","Unrel_Recall_L3",53,"Study","No","3","Unrel_Recall_L3","ON","",3000,NA,NA,NA,NA,NA,NA,NA,NA
"A2RAC1CU8YLGPC","Collector",1,61,"2016-05-27T12:00:10-07:00","4",1,"Stimuli/versionCstim.txt","Procedure/versionCproc.txt","Tetris",NA,"EPISODE","","EPISODE","OFF","Unrel_Recall_L3",49,"Study","No","3","Unrel_Recall_L3","ON","",3000,NA,NA,NA,NA,NA,NA,NA,NA
"A2RAC1CU8YLGPC","Collector",1,62,"2016-05-27T12:00:18-07:00","8",1,"Stimuli/versionCstim.txt","Procedure/versionCproc.txt","Tetris",NA,"CANDY","","CANDY","OFF","Unrel_Recall_L3",48,"Study","No","3","Unrel_Recall_L3","ON","",3000,NA,NA,NA,NA,NA,NA,NA,NA
"A2RAC1CU8YLGPC","Collector",1,63,"2016-05-27T12:00:22-07:00","4",1,"Stimuli/versionCstim.txt","Procedure/versionCproc.txt","Tetris",NA,"INDEX","","INDEX","OFF","Unrel_Recall_L3",60,"Study","No","3","Unrel_Recall_L3","ON","",3000,NA,NA,NA,NA,NA,NA,NA,NA
"A2RAC1CU8YLGPC","Collector",1,64,"2016-05-27T12:00:27-07:00","5",1,"Stimuli/versionCstim.txt","Procedure/versionCproc.txt","Tetris",NA,"CANTEEN","","CANTEEN","OFF","Unrel_Recall_L3",61,"Study","No","3","Unrel_Recall_L3","ON","",3000,NA,NA,NA,NA,NA,NA,NA,NA
"A2RAC1CU8YLGPC","Collector",1,65,"2016-05-27T12:00:32-07:00","5",1,"Stimuli/versionCstim.txt","Procedure/versionCproc.txt","Tetris",NA,"HERMIT","","HERMIT","OFF","Unrel_Recall_L3",51,"Study","No","3","Unrel_Recall_L3","ON","",3000,NA,NA,NA,NA,NA,NA,NA,NA
"A2RAC1CU8YLGPC","Collector",1,66,"2016-05-27T12:00:37-07:00","5",1,"Stimuli/versionCstim.txt","Procedure/versionCproc.txt","Tetris",NA,"LANTERN","","LANTERN","OFF","Unrel_Recall_L3",45,"Study","No","3","Unrel_Recall_L3","ON","",3000,NA,NA,NA,NA,NA,NA,NA,NA
"A2RAC1CU8YLGPC","Collector",1,67,"2016-05-27T12:00:43-07:00","6",1,"Stimuli/versionCstim.txt","Procedure/versionCproc.txt","Tetris",NA,"METEOR","","METEOR","OFF","Unrel_Recall_L3",56,"Study","No","3","Unrel_Recall_L3","ON","",3000,NA,NA,NA,NA,NA,NA,NA,NA
"A2RAC1CU8YLGPC","Collector",1,68,"2016-05-27T12:00:50-07:00","7",1,"Stimuli/versionCstim.txt","Procedure/versionCproc.txt","Tetris",NA,"n/a","n/a","n/a","n/a","n/a",0,"Instruct","N/A","User","Recall Instructions: Recall the words that you saw from memory by typing them into the dialog box on the next screen. You will have 1 minute. Click the button below to begin.","OFF","",4950,NA,NA,NA,NA,NA,NA,NA,NA
"A2RAC1CU8YLGPC","Collector",1,69,"2016-05-27T12:01:52-07:00","62",1,"Stimuli/versionCstim.txt","Procedure/versionCproc.txt","Tetris",NA,"n/a","n/a","n/a","n/a","n/a",0,"freerecall","N/A","60","Recall now in the box. Spelling will not be counted against you. The computer will advance when your minute is up.","OFF","candy <br />  <br /> jam <br />  <br /> acre <br />  <br /> wax <br />  <br /> manual <br />  <br /> meteor <br />  <br /> episode <br />  <br /> ",60000,1170,30990,NA,NA,NA,NA,NA,NA
"A2RAC1CU8YLGPC","Collector",1,70,"2016-05-27T12:01:59-07:00","7",1,"Stimuli/versionCstim.txt","Procedure/versionCproc.txt","Tetris",NA,"n/a","n/a","n/a","n/a","n/a",0,"Instruct","N/A","User","Click the button below for the next list.","OFF","",5320,NA,NA,NA,NA,NA,NA,NA,NA
"A2RAC1CU8YLGPC","Collector",1,71,"2016-05-27T12:02:04-07:00","5",1,"Stimuli/versionCstim.txt","Procedure/versionCproc.txt","Tetris",NA,"QUICHE","","QUICHE","OFF","Unrel_Recall_L4",63,"Study","No","3","Unrel_Recall_L4","ON","",3000,NA,NA,NA,NA,NA,NA,NA,NA
"A2RAC1CU8YLGPC","Collector",1,72,"2016-05-27T12:02:09-07:00","5",1,"Stimuli/versionCstim.txt","Procedure/versionCproc.txt","Tetris",NA,"ANGEL","","ANGEL","OFF","Unrel_Recall_L4",64,"Study","No","3","Unrel_Recall_L4","ON","",3000,NA,NA,NA,NA,NA,NA,NA,NA
"A2RAC1CU8YLGPC","Collector",1,73,"2016-05-27T12:02:14-07:00","5",1,"Stimuli/versionCstim.txt","Procedure/versionCproc.txt","Tetris",NA,"FARM","","FARM","OFF","Unrel_Recall_L4",74,"Study","No","3","Unrel_Recall_L4","ON","",3000,NA,NA,NA,NA,NA,NA,NA,NA
"A2RAC1CU8YLGPC","Collector",1,74,"2016-05-27T12:02:19-07:00","5",1,"Stimuli/versionCstim.txt","Procedure/versionCproc.txt","Tetris",NA,"KEROSENE","","KEROSENE","OFF","Unrel_Recall_L4",71,"Study","No","3","Unrel_Recall_L4","ON","",3000,NA,NA,NA,NA,NA,NA,NA,NA
"A2RAC1CU8YLGPC","Collector",1,75,"2016-05-27T12:02:23-07:00","4",1,"Stimuli/versionCstim.txt","Procedure/versionCproc.txt","Tetris",NA,"DENTIST","","DENTIST","OFF","Unrel_Recall_L4",81,"Study","No","3","Unrel_Recall_L4","ON","",3000,NA,NA,NA,NA,NA,NA,NA,NA
"A2RAC1CU8YLGPC","Collector",1,76,"2016-05-27T12:02:28-07:00","5",1,"Stimuli/versionCstim.txt","Procedure/versionCproc.txt","Tetris",NA,"BLOSSOM","","BLOSSOM","OFF","Unrel_Recall_L4",65,"Study","No","3","Unrel_Recall_L4","ON","",3000,NA,NA,NA,NA,NA,NA,NA,NA
"A2RAC1CU8YLGPC","Collector",1,77,"2016-05-27T12:02:33-07:00","5",1,"Stimuli/versionCstim.txt","Procedure/versionCproc.txt","Tetris",NA,"CANE","","CANE","OFF","Unrel_Recall_L4",78,"Study","No","3","Unrel_Recall_L4","ON","",3000,NA,NA,NA,NA,NA,NA,NA,NA
"A2RAC1CU8YLGPC","Collector",1,78,"2016-05-27T12:02:38-07:00","5",1,"Stimuli/versionCstim.txt","Procedure/versionCproc.txt","Tetris",NA,"OUTLAW","","OUTLAW","OFF","Unrel_Recall_L4",80,"Study","No","3","Unrel_Recall_L4","ON","",3000,NA,NA,NA,NA,NA,NA,NA,NA
"A2RAC1CU8YLGPC","Collector",1,79,"2016-05-27T12:02:43-07:00","5",1,"Stimuli/versionCstim.txt","Procedure/versionCproc.txt","Tetris",NA,"FUNK","","FUNK","OFF","Unrel_Recall_L4",72,"Study","No","3","Unrel_Recall_L4","ON","",3000,NA,NA,NA,NA,NA,NA,NA,NA
"A2RAC1CU8YLGPC","Collector",1,80,"2016-05-27T12:02:47-07:00","4",1,"Stimuli/versionCstim.txt","Procedure/versionCproc.txt","Tetris",NA,"NUGGET","","NUGGET","OFF","Unrel_Recall_L4",70,"Study","No","3","Unrel_Recall_L4","ON","",3000,NA,NA,NA,NA,NA,NA,NA,NA
"A2RAC1CU8YLGPC","Collector",1,81,"2016-05-27T12:02:52-07:00","5",1,"Stimuli/versionCstim.txt","Procedure/versionCproc.txt","Tetris",NA,"CANOE","","CANOE","OFF","Unrel_Recall_L4",62,"Study","No","3","Unrel_Recall_L4","ON","",3000,NA,NA,NA,NA,NA,NA,NA,NA
"A2RAC1CU8YLGPC","Collector",1,82,"2016-05-27T12:02:57-07:00","5",1,"Stimuli/versionCstim.txt","Procedure/versionCproc.txt","Tetris",NA,"MATH","","MATH","OFF","Unrel_Recall_L4",76,"Study","No","3","Unrel_Recall_L4","ON","",3000,NA,NA,NA,NA,NA,NA,NA,NA
"A2RAC1CU8YLGPC","Collector",1,83,"2016-05-27T12:03:03-07:00","6",1,"Stimuli/versionCstim.txt","Procedure/versionCproc.txt","Tetris",NA,"SOLAR","","SOLAR","OFF","Unrel_Recall_L4",66,"Study","No","3","Unrel_Recall_L4","ON","",3000,NA,NA,NA,NA,NA,NA,NA,NA
"A2RAC1CU8YLGPC","Collector",1,84,"2016-05-27T12:03:08-07:00","5",1,"Stimuli/versionCstim.txt","Procedure/versionCproc.txt","Tetris",NA,"CREST","","CREST","OFF","Unrel_Recall_L4",77,"Study","No","3","Unrel_Recall_L4","ON","",3000,NA,NA,NA,NA,NA,NA,NA,NA
"A2RAC1CU8YLGPC","Collector",1,85,"2016-05-27T12:03:13-07:00","5",1,"Stimuli/versionCstim.txt","Procedure/versionCproc.txt","Tetris",NA,"CANON","","CANON","OFF","Unrel_Recall_L4",68,"Study","No","3","Unrel_Recall_L4","ON","",3000,NA,NA,NA,NA,NA,NA,NA,NA
"A2RAC1CU8YLGPC","Collector",1,86,"2016-05-27T12:03:18-07:00","5",1,"Stimuli/versionCstim.txt","Procedure/versionCproc.txt","Tetris",NA,"INFANT","","INFANT","OFF","Unrel_Recall_L4",69,"Study","No","3","Unrel_Recall_L4","ON","",3000,NA,NA,NA,NA,NA,NA,NA,NA
"A2RAC1CU8YLGPC","Collector",1,87,"2016-05-27T12:03:24-07:00","6",1,"Stimuli/versionCstim.txt","Procedure/versionCproc.txt","Tetris",NA,"PINT","","PINT","OFF","Unrel_Recall_L4",73,"Study","No","3","Unrel_Recall_L4","ON","",3000,NA,NA,NA,NA,NA,NA,NA,NA
"A2RAC1CU8YLGPC","Collector",1,88,"2016-05-27T12:03:30-07:00","6",1,"Stimuli/versionCstim.txt","Procedure/versionCproc.txt","Tetris",NA,"ACORN","","ACORN","OFF","Unrel_Recall_L4",79,"Study","No","3","Unrel_Recall_L4","ON","",3000,NA,NA,NA,NA,NA,NA,NA,NA
"A2RAC1CU8YLGPC","Collector",1,89,"2016-05-27T12:03:35-07:00","5",1,"Stimuli/versionCstim.txt","Procedure/versionCproc.txt","Tetris",NA,"VALVE","","VALVE","OFF","Unrel_Recall_L4",67,"Study","No","3","Unrel_Recall_L4","ON","",3000,NA,NA,NA,NA,NA,NA,NA,NA
"A2RAC1CU8YLGPC","Collector",1,90,"2016-05-27T12:03:41-07:00","6",1,"Stimuli/versionCstim.txt","Procedure/versionCproc.txt","Tetris",NA,"VAPOR","","VAPOR","OFF","Unrel_Recall_L4",75,"Study","No","3","Unrel_Recall_L4","ON","",3000,NA,NA,NA,NA,NA,NA,NA,NA
"A2RAC1CU8YLGPC","Collector",1,91,"2016-05-27T12:03:51-07:00","10",1,"Stimuli/versionCstim.txt","Procedure/versionCproc.txt","Tetris",NA,"n/a","n/a","n/a","n/a","n/a",0,"Instruct","N/A","User","Recall Instructions: Recall the words that you saw from memory by typing them into the dialog box on the next screen. You will have 1 minute. Click the button below to begin.","OFF","",8590,NA,NA,NA,NA,NA,NA,NA,NA
"A2RAC1CU8YLGPC","Collector",1,92,"2016-05-27T12:04:53-07:00","62",1,"Stimuli/versionCstim.txt","Procedure/versionCproc.txt","Tetris",NA,"n/a","n/a","n/a","n/a","n/a",0,"freerecall","N/A","60","Recall now in the box. Spelling will not be counted against you. The computer will advance when your minute is up.","OFF","quiche <br />  <br /> angel <br />  <br /> math <br />  <br /> solar <br />  <br /> canoe <br />  <br /> vapor <br />  <br /> dentist <br />  <br /> nu",60000,1370,59910,NA,NA,NA,NA,NA,NA
"A2RAC1CU8YLGPC","Collector",1,93,"2016-05-27T12:05:03-07:00","10",1,"Stimuli/versionCstim.txt","Procedure/versionCproc.txt","Tetris",NA,"n/a","n/a","n/a","n/a","n/a",0,"Instruct","N/A","User","Click the button below for the next list.","OFF","",6370,NA,NA,NA,NA,NA,NA,NA,NA
"A2RAC1CU8YLGPC","Collector",1,94,"2016-05-27T12:05:07-07:00","4",1,"Stimuli/versionCstim.txt","Procedure/versionCproc.txt","Tetris",NA,"ALPACA","","ALPACA","OFF","Cat_Recall_L5",99,"Study","No","3","Cat_Recall_L5","ON","",3000,NA,NA,NA,NA,NA,NA,NA,NA
"A2RAC1CU8YLGPC","Collector",1,95,"2016-05-27T12:05:12-07:00","5",1,"Stimuli/versionCstim.txt","Procedure/versionCproc.txt","Tetris",NA,"POLYESTER","","POLYESTER","OFF","Cat_Recall_L5",93,"Study","No","3","Cat_Recall_L5","ON","",3000,NA,NA,NA,NA,NA,NA,NA,NA
"A2RAC1CU8YLGPC","Collector",1,96,"2016-05-27T12:05:17-07:00","5",1,"Stimuli/versionCstim.txt","Procedure/versionCproc.txt","Tetris",NA,"TWILL","","TWILL","OFF","Cat_Recall_L5",82,"Study","No","3","Cat_Recall_L5","ON","",3000,NA,NA,NA,NA,NA,NA,NA,NA
"A2RAC1CU8YLGPC","Collector",1,97,"2016-05-27T12:05:22-07:00","5",1,"Stimuli/versionCstim.txt","Procedure/versionCproc.txt","Tetris",NA,"TWEED","","TWEED","OFF","Cat_Recall_L5",92,"Study","No","3","Cat_Recall_L5","ON","",3000,NA,NA,NA,NA,NA,NA,NA,NA
"A2RAC1CU8YLGPC","Collector",1,98,"2016-05-27T12:05:29-07:00","7",1,"Stimuli/versionCstim.txt","Procedure/versionCproc.txt","Tetris",NA,"CALICO","","CALICO","OFF","Cat_Recall_L5",84,"Study","No","3","Cat_Recall_L5","ON","",3000,NA,NA,NA,NA,NA,NA,NA,NA
"A2RAC1CU8YLGPC","Collector",1,99,"2016-05-27T12:05:35-07:00","6",1,"Stimuli/versionCstim.txt","Procedure/versionCproc.txt","Tetris",NA,"BURLAP","","BURLAP","OFF","Cat_Recall_L5",86,"Study","No","3","Cat_Recall_L5","ON","",3000,NA,NA,NA,NA,NA,NA,NA,NA
"A2RAC1CU8YLGPC","Collector",1,100,"2016-05-27T12:05:40-07:00","5",1,"Stimuli/versionCstim.txt","Procedure/versionCproc.txt","Tetris",NA,"SHEEPSKIN","","SHEEPSKIN","OFF","Cat_Recall_L5",94,"Study","No","3","Cat_Recall_L5","ON","",3000,NA,NA,NA,NA,NA,NA,NA,NA
"A2RAC1CU8YLGPC","Collector",1,101,"2016-05-27T12:05:45-07:00","5",1,"Stimuli/versionCstim.txt","Procedure/versionCproc.txt","Tetris",NA,"ANGORA","","ANGORA","OFF","Cat_Recall_L5",98,"Study","No","3","Cat_Recall_L5","ON","",3000,NA,NA,NA,NA,NA,NA,NA,NA
"A2RAC1CU8YLGPC","Collector",1,102,"2016-05-27T12:05:50-07:00","5",1,"Stimuli/versionCstim.txt","Procedure/versionCproc.txt","Tetris",NA,"CHIFFON","","CHIFFON","OFF","Cat_Recall_L5",100,"Study","No","3","Cat_Recall_L5","ON","",3000,NA,NA,NA,NA,NA,NA,NA,NA
"A2RAC1CU8YLGPC","Collector",1,103,"2016-05-27T12:05:54-07:00","4",1,"Stimuli/versionCstim.txt","Procedure/versionCproc.txt","Tetris",NA,"LACE","","LACE","OFF","Cat_Recall_L5",97,"Study","No","3","Cat_Recall_L5","ON","",3000,NA,NA,NA,NA,NA,NA,NA,NA
"A2RAC1CU8YLGPC","Collector",1,104,"2016-05-27T12:05:59-07:00","5",1,"Stimuli/versionCstim.txt","Procedure/versionCproc.txt","Tetris",NA,"LYCRA","","LYCRA","OFF","Cat_Recall_L5",101,"Study","No","3","Cat_Recall_L5","ON","",3000,NA,NA,NA,NA,NA,NA,NA,NA
"A2RAC1CU8YLGPC","Collector",1,105,"2016-05-27T12:06:04-07:00","5",1,"Stimuli/versionCstim.txt","Procedure/versionCproc.txt","Tetris",NA,"WORSTED","","WORSTED","OFF","Cat_Recall_L5",85,"Study","No","3","Cat_Recall_L5","ON","",3000,NA,NA,NA,NA,NA,NA,NA,NA
"A2RAC1CU8YLGPC","Collector",1,106,"2016-05-27T12:06:09-07:00","5",1,"Stimuli/versionCstim.txt","Procedure/versionCproc.txt","Tetris",NA,"TERRY","","TERRY","OFF","Cat_Recall_L5",91,"Study","No","3","Cat_Recall_L5","ON","",3000,NA,NA,NA,NA,NA,NA,NA,NA
"A2RAC1CU8YLGPC","Collector",1,107,"2016-05-27T12:06:14-07:00","5",1,"Stimuli/versionCstim.txt","Procedure/versionCproc.txt","Tetris",NA,"CORDUROY","","CORDUROY","OFF","Cat_Recall_L5",88,"Study","No","3","Cat_Recall_L5","ON","",3000,NA,NA,NA,NA,NA,NA,NA,NA
"A2RAC1CU8YLGPC","Collector",1,108,"2016-05-27T12:06:18-07:00","4",1,"Stimuli/versionCstim.txt","Procedure/versionCproc.txt","Tetris",NA,"FELT","","FELT","OFF","Cat_Recall_L5",96,"Study","No","3","Cat_Recall_L5","ON","",3000,NA,NA,NA,NA,NA,NA,NA,NA
"A2RAC1CU8YLGPC","Collector",1,109,"2016-05-27T12:06:23-07:00","5",1,"Stimuli/versionCstim.txt","Procedure/versionCproc.txt","Tetris",NA,"DENIUM","","DENIUM","OFF","Cat_Recall_L5",87,"Study","No","3","Cat_Recall_L5","ON","",3000,NA,NA,NA,NA,NA,NA,NA,NA
"A2RAC1CU8YLGPC","Collector",1,110,"2016-05-27T12:06:28-07:00","5",1,"Stimuli/versionCstim.txt","Procedure/versionCproc.txt","Tetris",NA,"JERSEY","","JERSEY","OFF","Cat_Recall_L5",95,"Study","No","3","Cat_Recall_L5","ON","",3000,NA,NA,NA,NA,NA,NA,NA,NA
"A2RAC1CU8YLGPC","Collector",1,111,"2016-05-27T12:06:39-07:00","11",1,"Stimuli/versionCstim.txt","Procedure/versionCproc.txt","Tetris",NA,"CHEESE CLOTH","","CHEESE CLOTH","OFF","Cat_Recall_L5",90,"Study","No","3","Cat_Recall_L5","ON","",3000,NA,NA,NA,NA,NA,NA,NA,NA
"A2RAC1CU8YLGPC","Collector",1,112,"2016-05-27T12:06:44-07:00","5",1,"Stimuli/versionCstim.txt","Procedure/versionCproc.txt","Tetris",NA,"FLANNEL","","FLANNEL","OFF","Cat_Recall_L5",89,"Study","No","3","Cat_Recall_L5","ON","",3000,NA,NA,NA,NA,NA,NA,NA,NA
"A2RAC1CU8YLGPC","Collector",1,113,"2016-05-27T12:06:49-07:00","5",1,"Stimuli/versionCstim.txt","Procedure/versionCproc.txt","Tetris",NA,"LINEN","","LINEN","OFF","Cat_Recall_L5",83,"Study","No","3","Cat_Recall_L5","ON","",3000,NA,NA,NA,NA,NA,NA,NA,NA
"A2RAC1CU8YLGPC","Collector",1,114,"2016-05-27T12:07:03-07:00","14",1,"Stimuli/versionCstim.txt","Procedure/versionCproc.txt","Tetris",NA,"n/a","n/a","n/a","n/a","n/a",0,"Instruct","N/A","User","Recall Instructions: Recall the words that you saw from memory by typing them into the dialog box on the next screen. You will have 1 minute. Click the button below to begin.","OFF","",11090,NA,NA,NA,NA,NA,NA,NA,NA
"A2RAC1CU8YLGPC","Collector",1,115,"2016-05-27T12:08:05-07:00","62",1,"Stimuli/versionCstim.txt","Procedure/versionCproc.txt","Tetris",NA,"n/a","n/a","n/a","n/a","n/a",0,"freerecall","N/A","60","Recall now in the box. Spelling will not be counted against you. The computer will advance when your minute is up.","OFF","alpaca <br />  <br /> polyester <br />  <br /> corduroy <br />  <br /> lycra <br />  <br /> jersey <br />  <br /> tweed <br />  <br /> angora <br />  <br /> terry <br />  <br /> dennium <br />  <br /> ",60000,1200,59660,NA,NA,NA,NA,NA,NA
"A2RAC1CU8YLGPC","Collector",1,116,"2016-05-27T12:08:12-07:00","7",1,"Stimuli/versionCstim.txt","Procedure/versionCproc.txt","Tetris",NA,"n/a","n/a","n/a","n/a","n/a",0,"Instruct","N/A","User","Click the button below for the next list.","OFF","",5390,NA,NA,NA,NA,NA,NA,NA,NA
"A2RAC1CU8YLGPC","Collector",1,117,"2016-05-27T12:08:17-07:00","5",1,"Stimuli/versionCstim.txt","Procedure/versionCproc.txt","Tetris",NA,"CLOGS","","CLOGS","OFF","AdHoc_Recall_L6",111,"Study","No","3","AdHoc_Recall_L6","ON","",3000,NA,NA,NA,NA,NA,NA,NA,NA
"A2RAC1CU8YLGPC","Collector",1,118,"2016-05-27T12:08:21-07:00","4",1,"Stimuli/versionCstim.txt","Procedure/versionCproc.txt","Tetris",NA,"TABLE","","TABLE","OFF","AdHoc_Recall_L6",103,"Study","No","3","AdHoc_Recall_L6","ON","",3000,NA,NA,NA,NA,NA,NA,NA,NA
"A2RAC1CU8YLGPC","Collector",1,119,"2016-05-27T12:08:26-07:00","5",1,"Stimuli/versionCstim.txt","Procedure/versionCproc.txt","Tetris",NA,"SHIP","","SHIP","OFF","AdHoc_Recall_L6",110,"Study","No","3","AdHoc_Recall_L6","ON","",3000,NA,NA,NA,NA,NA,NA,NA,NA
"A2RAC1CU8YLGPC","Collector",1,120,"2016-05-27T12:08:31-07:00","5",1,"Stimuli/versionCstim.txt","Procedure/versionCproc.txt","Tetris",NA,"SLED","","SLED","OFF","AdHoc_Recall_L6",119,"Study","No","3","AdHoc_Recall_L6","ON","",3000,NA,NA,NA,NA,NA,NA,NA,NA
"A2RAC1CU8YLGPC","Collector",1,121,"2016-05-27T12:08:36-07:00","5",1,"Stimuli/versionCstim.txt","Procedure/versionCproc.txt","Tetris",NA,"CHAIR","","CHAIR","OFF","AdHoc_Recall_L6",104,"Study","No","3","AdHoc_Recall_L6","ON","",3000,NA,NA,NA,NA,NA,NA,NA,NA
"A2RAC1CU8YLGPC","Collector",1,122,"2016-05-27T12:08:41-07:00","5",1,"Stimuli/versionCstim.txt","Procedure/versionCproc.txt","Tetris",NA,"SHELF","","SHELF","OFF","AdHoc_Recall_L6",112,"Study","No","3","AdHoc_Recall_L6","ON","",3000,NA,NA,NA,NA,NA,NA,NA,NA
"A2RAC1CU8YLGPC","Collector",1,123,"2016-05-27T12:08:45-07:00","4",1,"Stimuli/versionCstim.txt","Procedure/versionCproc.txt","Tetris",NA,"RULER","","RULER","OFF","AdHoc_Recall_L6",118,"Study","No","3","AdHoc_Recall_L6","ON","",3000,NA,NA,NA,NA,NA,NA,NA,NA
"A2RAC1CU8YLGPC","Collector",1,124,"2016-05-27T12:08:50-07:00","5",1,"Stimuli/versionCstim.txt","Procedure/versionCproc.txt","Tetris",NA,"BENCH","","BENCH","OFF","AdHoc_Recall_L6",115,"Study","No","3","AdHoc_Recall_L6","ON","",3000,NA,NA,NA,NA,NA,NA,NA,NA
"A2RAC1CU8YLGPC","Collector",1,125,"2016-05-27T12:08:56-07:00","6",1,"Stimuli/versionCstim.txt","Procedure/versionCproc.txt","Tetris",NA,"BOOMERANG","","BOOMERANG","OFF","AdHoc_Recall_L6",120,"Study","No","3","AdHoc_Recall_L6","ON","",3000,NA,NA,NA,NA,NA,NA,NA,NA
"A2RAC1CU8YLGPC","Collector",1,126,"2016-05-27T12:09:00-07:00","4",1,"Stimuli/versionCstim.txt","Procedure/versionCproc.txt","Tetris",NA,"DOOR","","DOOR","OFF","AdHoc_Recall_L6",105,"Study","No","3","AdHoc_Recall_L6","ON","",3000,NA,NA,NA,NA,NA,NA,NA,NA
"A2RAC1CU8YLGPC","Collector",1,127,"2016-05-27T12:09:05-07:00","5",1,"Stimuli/versionCstim.txt","Procedure/versionCproc.txt","Tetris",NA,"ROCKING HORSE","","ROCKING HORSE","OFF","AdHoc_Recall_L6",108,"Study","No","3","AdHoc_Recall_L6","ON","",3000,NA,NA,NA,NA,NA,NA,NA,NA
"A2RAC1CU8YLGPC","Collector",1,128,"2016-05-27T12:09:10-07:00","5",1,"Stimuli/versionCstim.txt","Procedure/versionCproc.txt","Tetris",NA,"STAIRS","","STAIRS","OFF","AdHoc_Recall_L6",117,"Study","No","3","AdHoc_Recall_L6","ON","",3000,NA,NA,NA,NA,NA,NA,NA,NA
"A2RAC1CU8YLGPC","Collector",1,129,"2016-05-27T12:09:15-07:00","5",1,"Stimuli/versionCstim.txt","Procedure/versionCproc.txt","Tetris",NA,"GAZEBO","","GAZEBO","OFF","AdHoc_Recall_L6",106,"Study","No","3","AdHoc_Recall_L6","ON","",3000,NA,NA,NA,NA,NA,NA,NA,NA
"A2RAC1CU8YLGPC","Collector",1,130,"2016-05-27T12:09:20-07:00","5",1,"Stimuli/versionCstim.txt","Procedure/versionCproc.txt","Tetris",NA,"PENCIL","","PENCIL","OFF","AdHoc_Recall_L6",107,"Study","No","3","AdHoc_Recall_L6","ON","",3000,NA,NA,NA,NA,NA,NA,NA,NA
"A2RAC1CU8YLGPC","Collector",1,131,"2016-05-27T12:09:25-07:00","5",1,"Stimuli/versionCstim.txt","Procedure/versionCproc.txt","Tetris",NA,"BASEBALL BAT","","BASEBALL BAT","OFF","AdHoc_Recall_L6",113,"Study","No","3","AdHoc_Recall_L6","ON","",3000,NA,NA,NA,NA,NA,NA,NA,NA
"A2RAC1CU8YLGPC","Collector",1,132,"2016-05-27T12:09:32-07:00","7",1,"Stimuli/versionCstim.txt","Procedure/versionCproc.txt","Tetris",NA,"BARN","","BARN","OFF","AdHoc_Recall_L6",121,"Study","No","3","AdHoc_Recall_L6","ON","",3000,NA,NA,NA,NA,NA,NA,NA,NA
"A2RAC1CU8YLGPC","Collector",1,133,"2016-05-27T12:09:37-07:00","5",1,"Stimuli/versionCstim.txt","Procedure/versionCproc.txt","Tetris",NA,"DESK","","DESK","OFF","AdHoc_Recall_L6",109,"Study","No","3","AdHoc_Recall_L6","ON","",3000,NA,NA,NA,NA,NA,NA,NA,NA
"A2RAC1CU8YLGPC","Collector",1,134,"2016-05-27T12:09:41-07:00","4",1,"Stimuli/versionCstim.txt","Procedure/versionCproc.txt","Tetris",NA,"HOUSE","","HOUSE","OFF","AdHoc_Recall_L6",102,"Study","No","3","AdHoc_Recall_L6","ON","",3000,NA,NA,NA,NA,NA,NA,NA,NA
"A2RAC1CU8YLGPC","Collector",1,135,"2016-05-27T12:09:50-07:00","9",1,"Stimuli/versionCstim.txt","Procedure/versionCproc.txt","Tetris",NA,"CABINET","","CABINET","OFF","AdHoc_Recall_L6",116,"Study","No","3","AdHoc_Recall_L6","ON","",3000,NA,NA,NA,NA,NA,NA,NA,NA
"A2RAC1CU8YLGPC","Collector",1,136,"2016-05-27T12:09:55-07:00","5",1,"Stimuli/versionCstim.txt","Procedure/versionCproc.txt","Tetris",NA,"DOCK","","DOCK","OFF","AdHoc_Recall_L6",114,"Study","No","3","AdHoc_Recall_L6","ON","",3000,NA,NA,NA,NA,NA,NA,NA,NA
"A2RAC1CU8YLGPC","Collector",1,137,"2016-05-27T12:10:08-07:00","13",1,"Stimuli/versionCstim.txt","Procedure/versionCproc.txt","Tetris",NA,"n/a","n/a","n/a","n/a","n/a",0,"Instruct","N/A","User","Recall Instructions: Recall the words that you saw from memory by typing them into the dialog box on the next screen. You will have 1 minute. Click the button below to begin.","OFF","",11640,NA,NA,NA,NA,NA,NA,NA,NA
"A2RAC1CU8YLGPC","Collector",1,138,"2016-05-27T12:11:10-07:00","62",1,"Stimuli/versionCstim.txt","Procedure/versionCproc.txt","Tetris",NA,"n/a","n/a","n/a","n/a","n/a",0,"freerecall","N/A","60","Recall now in the box. Spelling will not be counted against you. The computer will advance when your minute is up.","OFF","house <br />  <br /> door <br />  <br /> stairs <br />  <br /> desk <br />  <br /> pencil <br />  <br /> table <br />  <br /> chair <br />  <br /> baseball bat <br />  <br /> boomerang <br />  <br /> ",60000,1760,49700,NA,NA,NA,NA,NA,NA
"A2RAC1CU8YLGPC","Collector",1,139,"2016-05-27T12:11:33-07:00","23",1,"Stimuli/versionCstim.txt","Procedure/versionCproc.txt","Tetris",NA,"n/a","n/a","n/a","n/a","n/a",0,"Instruct","N/A","User","Now you will complete a recognition memory test based on the last 6 lists that you have studied. A word will be displayed on the computer screen and you are to decide whether the word was studied in the last 6 lists. If the word was studied, click the yes button. If the word was not studied, click the no button. Respond as quickly as possible without compromising accuracy.","OFF","",21380,NA,NA,NA,NA,NA,NA,NA,NA
"A2RAC1CU8YLGPC","Collector",1,140,"2016-05-27T12:11:37-07:00","4",1,"Stimuli/versionCstim.txt","Procedure/versionCproc.txt","Tetris",NA,"n/a","n/a","n/a","n/a","n/a",0,"Instruct","N/A","User","Click the button below to begin the test.","OFF","",1570,NA,NA,NA,NA,NA,NA,NA,NA
"A2RAC1CU8YLGPC","Collector",1,141,"2016-05-27T12:11:40-07:00","3",1,"Stimuli/versionCstim.txt","Procedure/versionCproc.txt","Tetris",NA,"ONION SALT","","ONION SALT","OFF","LI_Cat_Recall",124,"seqrec","No","User","RGN Test","ON","Yes",1600,NA,NA,NA,NA,NA,NA,NA,NA
"A2RAC1CU8YLGPC","Collector",1,142,"2016-05-27T12:11:43-07:00","3",1,"Stimuli/versionCstim.txt","Procedure/versionCproc.txt","Tetris",NA,"GUARD","","GUARD","OFF","NPLI_AdHoc_Recall",235,"seqrec","No","User","RGN Test","ON","No",1340,NA,NA,NA,NA,NA,NA,NA,NA
"A2RAC1CU8YLGPC","Collector",1,143,"2016-05-27T12:11:46-07:00","3",1,"Stimuli/versionCstim.txt","Procedure/versionCproc.txt","Tetris",NA,"INJURY","","INJURY","OFF","NPCI_Unrel_Recall",275,"seqrec","No","User","RGN Test","ON","No",1040,NA,NA,NA,NA,NA,NA,NA,NA
"A2RAC1CU8YLGPC","Collector",1,144,"2016-05-27T12:11:49-07:00","3",1,"Stimuli/versionCstim.txt","Procedure/versionCproc.txt","Tetris",NA,"DESK","","DESK","OFF","LI_AdHoc_Recall",175,"seqrec","No","User","RGN Test","ON","Yes",1190,NA,NA,NA,NA,NA,NA,NA,NA
"A2RAC1CU8YLGPC","Collector",1,145,"2016-05-27T12:11:53-07:00","4",1,"Stimuli/versionCstim.txt","Procedure/versionCproc.txt","Tetris",NA,"TOWER","","TOWER","OFF","NPLI_AdHoc_Recall",236,"seqrec","No","User","RGN Test","ON","No",2060,NA,NA,NA,NA,NA,NA,NA,NA
"A2RAC1CU8YLGPC","Collector",1,146,"2016-05-27T12:11:55-07:00","2",1,"Stimuli/versionCstim.txt","Procedure/versionCproc.txt","Tetris",NA,"SHAVER","","SHAVER","OFF","NPLI_AdHoc_Recall",227,"seqrec","No","User","RGN Test","ON","No",970,NA,NA,NA,NA,NA,NA,NA,NA
"A2RAC1CU8YLGPC","Collector",1,147,"2016-05-27T12:11:58-07:00","3",1,"Stimuli/versionCstim.txt","Procedure/versionCproc.txt","Tetris",NA,"GEAR","","GEAR","OFF","LI_AdHoc_Recall",135,"seqrec","No","User","RGN Test","ON","Yes",1290,NA,NA,NA,NA,NA,NA,NA,NA
"A2RAC1CU8YLGPC","Collector",1,148,"2016-05-27T12:12:01-07:00","3",1,"Stimuli/versionCstim.txt","Procedure/versionCproc.txt","Tetris",NA,"FLANNEL","","FLANNEL","OFF","LI_Cat_Recall",165,"seqrec","No","User","RGN Test","ON","No",1410,NA,NA,NA,NA,NA,NA,NA,NA
"A2RAC1CU8YLGPC","Collector",1,149,"2016-05-27T12:12:04-07:00","3",1,"Stimuli/versionCstim.txt","Procedure/versionCproc.txt","Tetris",NA,"ACROBAT","","ACROBAT","OFF","CI_Unrel_Recall",200,"seqrec","No","User","RGN Test","ON","No",1310,NA,NA,NA,NA,NA,NA,NA,NA
"A2RAC1CU8YLGPC","Collector",1,150,"2016-05-27T12:12:07-07:00","3",1,"Stimuli/versionCstim.txt","Procedure/versionCproc.txt","Tetris",NA,"GLOVE","","GLOVE","OFF","NPCI_Cat_Recall",295,"seqrec","No","User","RGN Test","ON","Yes",1330,NA,NA,NA,NA,NA,NA,NA,NA
"A2RAC1CU8YLGPC","Collector",1,151,"2016-05-27T12:12:10-07:00","3",1,"Stimuli/versionCstim.txt","Procedure/versionCproc.txt","Tetris",NA,"PINT","","PINT","OFF","LI_Unrel_Recall",157,"seqrec","No","User","RGN Test","ON","Yes",1170,NA,NA,NA,NA,NA,NA,NA,NA
"A2RAC1CU8YLGPC","Collector",1,152,"2016-05-27T12:12:14-07:00","4",1,"Stimuli/versionCstim.txt","Procedure/versionCproc.txt","Tetris",NA,"KEROSENE","","KEROSENE","OFF","LI_Unrel_Recall",156,"seqrec","No","User","RGN Test","ON","Yes",2150,NA,NA,NA,NA,NA,NA,NA,NA
"A2RAC1CU8YLGPC","Collector",1,153,"2016-05-27T12:12:17-07:00","3",1,"Stimuli/versionCstim.txt","Procedure/versionCproc.txt","Tetris",NA,"BARREL","","BARREL","OFF","CI_AdHoc_Recall",209,"seqrec","No","User","RGN Test","ON","No",1410,NA,NA,NA,NA,NA,NA,NA,NA
"A2RAC1CU8YLGPC","Collector",1,154,"2016-05-27T12:12:20-07:00","3",1,"Stimuli/versionCstim.txt","Procedure/versionCproc.txt","Tetris",NA,"BRUSH","","BRUSH","OFF","NPLI_AdHoc_Recall",225,"seqrec","No","User","RGN Test","ON","No",1120,NA,NA,NA,NA,NA,NA,NA,NA
"A2RAC1CU8YLGPC","Collector",1,155,"2016-05-27T12:12:23-07:00","3",1,"Stimuli/versionCstim.txt","Procedure/versionCproc.txt","Tetris",NA,"WINNER","","WINNER","OFF","NPLI_Unrel_Recall",221,"seqrec","No","User","RGN Test","ON","No",1300,NA,NA,NA,NA,NA,NA,NA,NA
"A2RAC1CU8YLGPC","Collector",1,156,"2016-05-27T12:12:26-07:00","3",1,"Stimuli/versionCstim.txt","Procedure/versionCproc.txt","Tetris",NA,"SHOWER","","SHOWER","OFF","NPCI_AdHoc_Recall",277,"seqrec","No","User","RGN Test","ON","No",1620,NA,NA,NA,NA,NA,NA,NA,NA
"A2RAC1CU8YLGPC","Collector",1,157,"2016-05-27T12:12:30-07:00","4",1,"Stimuli/versionCstim.txt","Procedure/versionCproc.txt","Tetris",NA,"CHAIN","","CHAIN","OFF","NPLI_AdHoc_Recall",237,"seqrec","No","User","RGN Test","ON","No",1900,NA,NA,NA,NA,NA,NA,NA,NA
"A2RAC1CU8YLGPC","Collector",1,158,"2016-05-27T12:12:33-07:00","3",1,"Stimuli/versionCstim.txt","Procedure/versionCproc.txt","Tetris",NA,"YO-YO","","YO-YO","OFF","LI_AdHoc_Recall",141,"seqrec","No","User","RGN Test","ON","Yes",1070,NA,NA,NA,NA,NA,NA,NA,NA
"A2RAC1CU8YLGPC","Collector",1,159,"2016-05-27T12:12:35-07:00","2",1,"Stimuli/versionCstim.txt","Procedure/versionCproc.txt","Tetris",NA,"HAYSTACK","","HAYSTACK","OFF","CI_Unrel_Recall",194,"seqrec","No","User","RGN Test","ON","No",1280,NA,NA,NA,NA,NA,NA,NA,NA
"A2RAC1CU8YLGPC","Collector",1,160,"2016-05-27T12:12:38-07:00","3",1,"Stimuli/versionCstim.txt","Procedure/versionCproc.txt","Tetris",NA,"GENE","","GENE","OFF","CI_Unrel_Recall",201,"seqrec","No","User","RGN Test","ON","No",1200,NA,NA,NA,NA,NA,NA,NA,NA
"A2RAC1CU8YLGPC","Collector",1,161,"2016-05-27T12:12:41-07:00","3",1,"Stimuli/versionCstim.txt","Procedure/versionCproc.txt","Tetris",NA,"TOOTHPICK","","TOOTHPICK","OFF","CI_AdHoc_Recall",211,"seqrec","No","User","RGN Test","ON","No",1150,NA,NA,NA,NA,NA,NA,NA,NA
"A2RAC1CU8YLGPC","Collector",1,162,"2016-05-27T12:12:44-07:00","3",1,"Stimuli/versionCstim.txt","Procedure/versionCproc.txt","Tetris",NA,"TRAILER","","TRAILER","OFF","NPLI_Cat_Recall",242,"seqrec","No","User","RGN Test","ON","No",1190,NA,NA,NA,NA,NA,NA,NA,NA
"A2RAC1CU8YLGPC","Collector",1,163,"2016-05-27T12:12:46-07:00","2",1,"Stimuli/versionCstim.txt","Procedure/versionCproc.txt","Tetris",NA,"MUSTARD","","MUSTARD","OFF","CI_Cat_Recall",185,"seqrec","No","User","RGN Test","ON","No",950,NA,NA,NA,NA,NA,NA,NA,NA
"A2RAC1CU8YLGPC","Collector",1,164,"2016-05-27T12:12:49-07:00","3",1,"Stimuli/versionCstim.txt","Procedure/versionCproc.txt","Tetris",NA,"ALPACA","","ALPACA","OFF","LI_Cat_Recall",170,"seqrec","No","User","RGN Test","ON","Yes",1360,NA,NA,NA,NA,NA,NA,NA,NA
"A2RAC1CU8YLGPC","Collector",1,165,"2016-05-27T12:12:52-07:00","3",1,"Stimuli/versionCstim.txt","Procedure/versionCproc.txt","Tetris",NA,"SATELLITE","","SATELLITE","OFF","LI_AdHoc_Recall",132,"seqrec","No","User","RGN Test","ON","Yes",1210,NA,NA,NA,NA,NA,NA,NA,NA
"A2RAC1CU8YLGPC","Collector",1,166,"2016-05-27T12:12:56-07:00","4",1,"Stimuli/versionCstim.txt","Procedure/versionCproc.txt","Tetris",NA,"HOUSEBOAT","","HOUSEBOAT","OFF","NPLI_Cat_Recall",247,"seqrec","No","User","RGN Test","ON","No",1820,NA,NA,NA,NA,NA,NA,NA,NA
"A2RAC1CU8YLGPC","Collector",1,167,"2016-05-27T12:13:00-07:00","4",1,"Stimuli/versionCstim.txt","Procedure/versionCproc.txt","Tetris",NA,"BARRACKS","","BARRACKS","OFF","NPLI_Cat_Recall",251,"seqrec","No","User","RGN Test","ON","No",1170,NA,NA,NA,NA,NA,NA,NA,NA
"A2RAC1CU8YLGPC","Collector",1,168,"2016-05-27T12:13:04-07:00","4",1,"Stimuli/versionCstim.txt","Procedure/versionCproc.txt","Tetris",NA,"HARVEST","","HARVEST","OFF","LI_Unrel_Recall",150,"seqrec","No","User","RGN Test","ON","Yes",1600,NA,NA,NA,NA,NA,NA,NA,NA
"A2RAC1CU8YLGPC","Collector",1,169,"2016-05-27T12:13:07-07:00","3",1,"Stimuli/versionCstim.txt","Procedure/versionCproc.txt","Tetris",NA,"SIEVE","","SIEVE","OFF","NPLI_Cat_Recall",261,"seqrec","No","User","RGN Test","ON","No",1240,NA,NA,NA,NA,NA,NA,NA,NA
"A2RAC1CU8YLGPC","Collector",1,170,"2016-05-27T12:13:09-07:00","2",1,"Stimuli/versionCstim.txt","Procedure/versionCproc.txt","Tetris",NA,"TENT","","TENT","OFF","NPCI_Cat_Recall",288,"seqrec","No","User","RGN Test","ON","No",1110,NA,NA,NA,NA,NA,NA,NA,NA
"A2RAC1CU8YLGPC","Collector",1,171,"2016-05-27T12:13:13-07:00","4",1,"Stimuli/versionCstim.txt","Procedure/versionCproc.txt","Tetris",NA,"SPIRAL","","SPIRAL","OFF","LI_AdHoc_Recall",139,"seqrec","No","User","RGN Test","ON","Yes",1520,NA,NA,NA,NA,NA,NA,NA,NA
"A2RAC1CU8YLGPC","Collector",1,172,"2016-05-27T12:13:16-07:00","3",1,"Stimuli/versionCstim.txt","Procedure/versionCproc.txt","Tetris",NA,"TILE","","TILE","OFF","NPLI_AdHoc_Recall",223,"seqrec","No","User","RGN Test","ON","No",1180,NA,NA,NA,NA,NA,NA,NA,NA
"A2RAC1CU8YLGPC","Collector",1,173,"2016-05-27T12:13:18-07:00","2",1,"Stimuli/versionCstim.txt","Procedure/versionCproc.txt","Tetris",NA,"ZONE","","ZONE","OFF","NPLI_Unrel_Recall",263,"seqrec","No","User","RGN Test","ON","No",1050,NA,NA,NA,NA,NA,NA,NA,NA
"A2RAC1CU8YLGPC","Collector",1,174,"2016-05-27T12:13:22-07:00","4",1,"Stimuli/versionCstim.txt","Procedure/versionCproc.txt","Tetris",NA,"CIMINAL","","CIMINAL","OFF","NPCI_AdHoc_Recall",285,"seqrec","No","User","RGN Test","ON","No",1840,NA,NA,NA,NA,NA,NA,NA,NA
"A2RAC1CU8YLGPC","Collector",1,175,"2016-05-27T12:13:25-07:00","3",1,"Stimuli/versionCstim.txt","Procedure/versionCproc.txt","Tetris",NA,"MANUAL","","MANUAL","OFF","LI_Unrel_Recall",149,"seqrec","No","User","RGN Test","ON","Yes",1070,NA,NA,NA,NA,NA,NA,NA,NA
"A2RAC1CU8YLGPC","Collector",1,176,"2016-05-27T12:13:27-07:00","2",1,"Stimuli/versionCstim.txt","Procedure/versionCproc.txt","Tetris",NA,"RAZOR","","RAZOR","OFF","NPCI_AdHoc_Recall",281,"seqrec","No","User","RGN Test","ON","No",1190,NA,NA,NA,NA,NA,NA,NA,NA
"A2RAC1CU8YLGPC","Collector",1,177,"2016-05-27T12:13:31-07:00","4",1,"Stimuli/versionCstim.txt","Procedure/versionCproc.txt","Tetris",NA,"HAIR DRYER","","HAIR DRYER","OFF","NPLI_AdHoc_Recall",230,"seqrec","No","User","RGN Test","ON","No",1570,NA,NA,NA,NA,NA,NA,NA,NA
"A2RAC1CU8YLGPC","Collector",1,178,"2016-05-27T12:13:34-07:00","3",1,"Stimuli/versionCstim.txt","Procedure/versionCproc.txt","Tetris",NA,"DAY","","DAY","OFF","NPLI_Unrel_Recall",265,"seqrec","No","User","RGN Test","ON","No",1420,NA,NA,NA,NA,NA,NA,NA,NA
"A2RAC1CU8YLGPC","Collector",1,179,"2016-05-27T12:13:37-07:00","3",1,"Stimuli/versionCstim.txt","Procedure/versionCproc.txt","Tetris",NA,"ROOM","","ROOM","OFF","NPLI_Cat_Recall",248,"seqrec","No","User","RGN Test","ON","No",1260,NA,NA,NA,NA,NA,NA,NA,NA
"A2RAC1CU8YLGPC","Collector",1,180,"2016-05-27T12:13:40-07:00","3",1,"Stimuli/versionCstim.txt","Procedure/versionCproc.txt","Tetris",NA,"APARTMENT","","APARTMENT","OFF","NPCI_Cat_Recall",287,"seqrec","No","User","RGN Test","ON","No",1450,NA,NA,NA,NA,NA,NA,NA,NA
"A2RAC1CU8YLGPC","Collector",1,181,"2016-05-27T12:13:43-07:00","3",1,"Stimuli/versionCstim.txt","Procedure/versionCproc.txt","Tetris",NA,"CHEESECAKE","","CHEESECAKE","OFF","NPCI_Unrel_Recall",273,"seqrec","No","User","RGN Test","ON","No",1490,NA,NA,NA,NA,NA,NA,NA,NA
"A2RAC1CU8YLGPC","Collector",1,182,"2016-05-27T12:13:46-07:00","3",1,"Stimuli/versionCstim.txt","Procedure/versionCproc.txt","Tetris",NA,"VAPOR","","VAPOR","OFF","LI_Unrel_Recall",158,"seqrec","No","User","RGN Test","ON","Yes",1150,NA,NA,NA,NA,NA,NA,NA,NA
"A2RAC1CU8YLGPC","Collector",1,183,"2016-05-27T12:13:50-07:00","4",1,"Stimuli/versionCstim.txt","Procedure/versionCproc.txt","Tetris",NA,"DETECTIVE","","DETECTIVE","OFF","NPLI_AdHoc_Recall",241,"seqrec","No","User","RGN Test","ON","No",2450,NA,NA,NA,NA,NA,NA,NA,NA
"A2RAC1CU8YLGPC","Collector",1,184,"2016-05-27T12:13:54-07:00","4",1,"Stimuli/versionCstim.txt","Procedure/versionCproc.txt","Tetris",NA,"SALT","","SALT","OFF","CI_Cat_Recall",186,"seqrec","No","User","RGN Test","ON","No",2250,NA,NA,NA,NA,NA,NA,NA,NA
"A2RAC1CU8YLGPC","Collector",1,185,"2016-05-27T12:13:58-07:00","4",1,"Stimuli/versionCstim.txt","Procedure/versionCproc.txt","Tetris",NA,"CAROUSEL","","CAROUSEL","OFF","CI_AdHoc_Recall",190,"seqrec","No","User","RGN Test","ON","No",1870,NA,NA,NA,NA,NA,NA,NA,NA
"A2RAC1CU8YLGPC","Collector",1,186,"2016-05-27T12:14:00-07:00","2",1,"Stimuli/versionCstim.txt","Procedure/versionCproc.txt","Tetris",NA,"OREGANO","","OREGANO","OFF","LI_Cat_Recall",123,"seqrec","No","User","RGN Test","ON","Yes",960,NA,NA,NA,NA,NA,NA,NA,NA
"A2RAC1CU8YLGPC","Collector",1,187,"2016-05-27T12:14:05-07:00","5",1,"Stimuli/versionCstim.txt","Procedure/versionCproc.txt","Tetris",NA,"CINNAMON","","CINNAMON","OFF","CI_Cat_Recall",183,"seqrec","No","User","RGN Test","ON","No",2650,NA,NA,NA,NA,NA,NA,NA,NA
"A2RAC1CU8YLGPC","Collector",1,188,"2016-05-27T12:14:08-07:00","3",1,"Stimuli/versionCstim.txt","Procedure/versionCproc.txt","Tetris",NA,"FENCE","","FENCE","OFF","CI_AdHoc_Recall",210,"seqrec","No","User","RGN Test","ON","No",1730,NA,NA,NA,NA,NA,NA,NA,NA
"A2RAC1CU8YLGPC","Collector",1,189,"2016-05-27T12:14:11-07:00","3",1,"Stimuli/versionCstim.txt","Procedure/versionCproc.txt","Tetris",NA,"FILTER","","FILTER","OFF","CI_Unrel_Recall",199,"seqrec","No","User","RGN Test","ON","No",1090,NA,NA,NA,NA,NA,NA,NA,NA
"A2RAC1CU8YLGPC","Collector",1,190,"2016-05-27T12:14:14-07:00","3",1,"Stimuli/versionCstim.txt","Procedure/versionCproc.txt","Tetris",NA,"FOOTHILL","","FOOTHILL","OFF","NPCI_Unrel_Recall",297,"seqrec","No","User","RGN Test","ON","No",1190,NA,NA,NA,NA,NA,NA,NA,NA
"A2RAC1CU8YLGPC","Collector",1,191,"2016-05-27T12:14:17-07:00","3",1,"Stimuli/versionCstim.txt","Procedure/versionCproc.txt","Tetris",NA,"ZIGZAG","","ZIGZAG","OFF","NPCI_Unrel_Recall",272,"seqrec","No","User","RGN Test","ON","No",1120,NA,NA,NA,NA,NA,NA,NA,NA
"A2RAC1CU8YLGPC","Collector",1,192,"2016-05-27T12:14:19-07:00","2",1,"Stimuli/versionCstim.txt","Procedure/versionCproc.txt","Tetris",NA,"RAYON","","RAYON","OFF","CI_Cat_Recall",203,"seqrec","No","User","RGN Test","ON","No",1140,NA,NA,NA,NA,NA,NA,NA,NA
"A2RAC1CU8YLGPC","Collector",1,193,"2016-05-27T12:14:22-07:00","3",1,"Stimuli/versionCstim.txt","Procedure/versionCproc.txt","Tetris",NA,"DWARF","","DWARF","OFF","NPLI_Unrel_Recall",219,"seqrec","No","User","RGN Test","ON","No",970,NA,NA,NA,NA,NA,NA,NA,NA
"A2RAC1CU8YLGPC","Collector",1,194,"2016-05-27T12:14:25-07:00","3",1,"Stimuli/versionCstim.txt","Procedure/versionCproc.txt","Tetris",NA,"ARCH","","ARCH","OFF","NPCI_Unrel_Recall",299,"seqrec","No","User","RGN Test","ON","No",1140,NA,NA,NA,NA,NA,NA,NA,NA
"A2RAC1CU8YLGPC","Collector",1,195,"2016-05-27T12:14:30-07:00","5",1,"Stimuli/versionCstim.txt","Procedure/versionCproc.txt","Tetris",NA,"TORNADO","","TORNADO","OFF","LI_AdHoc_Recall",138,"seqrec","No","User","RGN Test","ON","Yes",2960,NA,NA,NA,NA,NA,NA,NA,NA
"A2RAC1CU8YLGPC","Collector",1,196,"2016-05-27T12:14:33-07:00","3",1,"Stimuli/versionCstim.txt","Procedure/versionCproc.txt","Tetris",NA,"DESERT","","DESERT","OFF","LI_Unrel_Recall",144,"seqrec","No","User","RGN Test","ON","Yes",1180,NA,NA,NA,NA,NA,NA,NA,NA
"A2RAC1CU8YLGPC","Collector",1,197,"2016-05-27T12:14:36-07:00","3",1,"Stimuli/versionCstim.txt","Procedure/versionCproc.txt","Tetris",NA,"BUNKBED","","BUNKBED","OFF","NPLI_AdHoc_Recall",234,"seqrec","No","User","RGN Test","ON","No",1110,NA,NA,NA,NA,NA,NA,NA,NA
"A2RAC1CU8YLGPC","Collector",1,198,"2016-05-27T12:14:43-07:00","7",1,"Stimuli/versionCstim.txt","Procedure/versionCproc.txt","Tetris",NA,"CLOGS","","CLOGS","OFF","LI_AdHoc_Recall",176,"seqrec","No","User","RGN Test","ON","Yes",1620,NA,NA,NA,NA,NA,NA,NA,NA
"A2RAC1CU8YLGPC","Collector",1,199,"2016-05-27T12:14:47-07:00","4",1,"Stimuli/versionCstim.txt","Procedure/versionCproc.txt","Tetris",NA,"WINCH","","WINCH","OFF","NPLI_Unrel_Recall",215,"seqrec","No","User","RGN Test","ON","No",1370,NA,NA,NA,NA,NA,NA,NA,NA
"A2RAC1CU8YLGPC","Collector",1,200,"2016-05-27T12:14:51-07:00","4",1,"Stimuli/versionCstim.txt","Procedure/versionCproc.txt","Tetris",NA,"HOSE","","HOSE","OFF","NPCI_Cat_Recall",296,"seqrec","No","User","RGN Test","ON","No",2370,NA,NA,NA,NA,NA,NA,NA,NA
"A2RAC1CU8YLGPC","Collector",1,201,"2016-05-27T12:14:54-07:00","3",1,"Stimuli/versionCstim.txt","Procedure/versionCproc.txt","Tetris",NA,"JAR","","JAR","OFF","NPLI_Unrel_Recall",216,"seqrec","No","User","RGN Test","ON","No",1180,NA,NA,NA,NA,NA,NA,NA,NA
"A2RAC1CU8YLGPC","Collector",1,202,"2016-05-27T12:14:57-07:00","3",1,"Stimuli/versionCstim.txt","Procedure/versionCproc.txt","Tetris",NA,"PLOW","","PLOW","OFF","NPLI_Cat_Recall",253,"seqrec","No","User","RGN Test","ON","No",1050,NA,NA,NA,NA,NA,NA,NA,NA
"A2RAC1CU8YLGPC","Collector",1,203,"2016-05-27T12:15:03-07:00","6",1,"Stimuli/versionCstim.txt","Procedure/versionCproc.txt","Tetris",NA,"PICK","","PICK","OFF","NPLI_Cat_Recall",252,"seqrec","No","User","RGN Test","ON","Yes",3840,NA,NA,NA,NA,NA,NA,NA,NA
"A2RAC1CU8YLGPC","Collector",1,204,"2016-05-27T12:15:07-07:00","4",1,"Stimuli/versionCstim.txt","Procedure/versionCproc.txt","Tetris",NA,"GARLIC","","GARLIC","OFF","CI_Cat_Recall",182,"seqrec","No","User","RGN Test","ON","Yes",1740,NA,NA,NA,NA,NA,NA,NA,NA
"A2RAC1CU8YLGPC","Collector",1,205,"2016-05-27T12:15:10-07:00","3",1,"Stimuli/versionCstim.txt","Procedure/versionCproc.txt","Tetris",NA,"COTTAGE","","COTTAGE","OFF","NPLI_Cat_Recall",244,"seqrec","No","User","RGN Test","ON","No",1170,NA,NA,NA,NA,NA,NA,NA,NA
"A2RAC1CU8YLGPC","Collector",1,206,"2016-05-27T12:15:13-07:00","3",1,"Stimuli/versionCstim.txt","Procedure/versionCproc.txt","Tetris",NA,"VANILLA","","VANILLA","OFF","LI_Cat_Recall",122,"seqrec","No","User","RGN Test","ON","Yes",1110,NA,NA,NA,NA,NA,NA,NA,NA
"A2RAC1CU8YLGPC","Collector",1,207,"2016-05-27T12:15:17-07:00","4",1,"Stimuli/versionCstim.txt","Procedure/versionCproc.txt","Tetris",NA,"ORPHAN","","ORPHAN","OFF","LI_Unrel_Recall",148,"seqrec","No","User","RGN Test","ON","Yes",2560,NA,NA,NA,NA,NA,NA,NA,NA
"A2RAC1CU8YLGPC","Collector",1,208,"2016-05-27T12:15:25-07:00","8",1,"Stimuli/versionCstim.txt","Procedure/versionCproc.txt","Tetris",NA,"CABIN","","CABIN","OFF","NPCI_Cat_Recall",291,"seqrec","No","User","RGN Test","ON","Yes",3350,NA,NA,NA,NA,NA,NA,NA,NA
"A2RAC1CU8YLGPC","Collector",1,209,"2016-05-27T12:15:28-07:00","3",1,"Stimuli/versionCstim.txt","Procedure/versionCproc.txt","Tetris",NA,"SCALE","","SCALE","OFF","NPLI_AdHoc_Recall",222,"seqrec","No","User","RGN Test","ON","No",1370,NA,NA,NA,NA,NA,NA,NA,NA
"A2RAC1CU8YLGPC","Collector",1,210,"2016-05-27T12:15:32-07:00","4",1,"Stimuli/versionCstim.txt","Procedure/versionCproc.txt","Tetris",NA,"PLANTER","","PLANTER","OFF","NPLI_Cat_Recall",257,"seqrec","No","User","RGN Test","ON","No",1260,NA,NA,NA,NA,NA,NA,NA,NA
"A2RAC1CU8YLGPC","Collector",1,211,"2016-05-27T12:15:35-07:00","3",1,"Stimuli/versionCstim.txt","Procedure/versionCproc.txt","Tetris",NA,"LABEL","","LABEL","OFF","NPCI_Unrel_Recall",276,"seqrec","No","User","RGN Test","ON","No",1220,NA,NA,NA,NA,NA,NA,NA,NA
"A2RAC1CU8YLGPC","Collector",1,212,"2016-05-27T12:15:37-07:00","2",1,"Stimuli/versionCstim.txt","Procedure/versionCproc.txt","Tetris",NA,"LADDER","","LADDER","OFF","NPLI_Unrel_Recall",269,"seqrec","No","User","RGN Test","ON","No",970,NA,NA,NA,NA,NA,NA,NA,NA
"A2RAC1CU8YLGPC","Collector",1,213,"2016-05-27T12:15:42-07:00","5",1,"Stimuli/versionCstim.txt","Procedure/versionCproc.txt","Tetris",NA,"SKATE","","SKATE","OFF","CI_AdHoc_Recall",189,"seqrec","No","User","RGN Test","ON","No",1510,NA,NA,NA,NA,NA,NA,NA,NA
"A2RAC1CU8YLGPC","Collector",1,214,"2016-05-27T12:15:46-07:00","4",1,"Stimuli/versionCstim.txt","Procedure/versionCproc.txt","Tetris",NA,"CAVE","","CAVE","OFF","NPCI_Cat_Recall",289,"seqrec","No","User","RGN Test","ON","Yes",2310,NA,NA,NA,NA,NA,NA,NA,NA
"A2RAC1CU8YLGPC","Collector",1,215,"2016-05-27T12:15:50-07:00","4",1,"Stimuli/versionCstim.txt","Procedure/versionCproc.txt","Tetris",NA,"HANDCUFFS","","HANDCUFFS","OFF","NPCI_AdHoc_Recall",282,"seqrec","No","User","RGN Test","ON","No",1610,NA,NA,NA,NA,NA,NA,NA,NA
"A2RAC1CU8YLGPC","Collector",1,216,"2016-05-27T12:15:53-07:00","3",1,"Stimuli/versionCstim.txt","Procedure/versionCproc.txt","Tetris",NA,"BARN","","BARN","OFF","LI_AdHoc_Recall",181,"seqrec","No","User","RGN Test","ON","No",1290,NA,NA,NA,NA,NA,NA,NA,NA
"A2RAC1CU8YLGPC","Collector",1,217,"2016-05-27T12:15:57-07:00","4",1,"Stimuli/versionCstim.txt","Procedure/versionCproc.txt","Tetris",NA,"CLASS","","CLASS","OFF","NPLI_Unrel_Recall",270,"seqrec","No","User","RGN Test","ON","No",1200,NA,NA,NA,NA,NA,NA,NA,NA
"A2RAC1CU8YLGPC","Collector",1,218,"2016-05-27T12:16:01-07:00","4",1,"Stimuli/versionCstim.txt","Procedure/versionCproc.txt","Tetris",NA,"ROLLING PIN","","ROLLING PIN","OFF","CI_AdHoc_Recall",207,"seqrec","No","User","RGN Test","ON","No",1270,NA,NA,NA,NA,NA,NA,NA,NA
"A2RAC1CU8YLGPC","Collector",1,219,"2016-05-27T12:16:04-07:00","3",1,"Stimuli/versionCstim.txt","Procedure/versionCproc.txt","Tetris",NA,"HAZE","","HAZE","OFF","CI_Unrel_Recall",195,"seqrec","No","User","RGN Test","ON","No",1020,NA,NA,NA,NA,NA,NA,NA,NA
"A2RAC1CU8YLGPC","Collector",1,220,"2016-05-27T12:16:07-07:00","3",1,"Stimuli/versionCstim.txt","Procedure/versionCproc.txt","Tetris",NA,"BROTH","","BROTH","OFF","NPLI_Unrel_Recall",268,"seqrec","No","User","RGN Test","ON","No",1060,NA,NA,NA,NA,NA,NA,NA,NA
"A2RAC1CU8YLGPC","Collector",1,221,"2016-05-27T12:16:10-07:00","3",1,"Stimuli/versionCstim.txt","Procedure/versionCproc.txt","Tetris",NA,"WHALE","","WHALE","OFF","LI_Unrel_Recall",147,"seqrec","No","User","RGN Test","ON","No",1750,NA,NA,NA,NA,NA,NA,NA,NA
"A2RAC1CU8YLGPC","Collector",1,222,"2016-05-27T12:16:13-07:00","3",1,"Stimuli/versionCstim.txt","Procedure/versionCproc.txt","Tetris",NA,"LOCKS","","LOCKS","OFF","NPCI_AdHoc_Recall",283,"seqrec","No","User","RGN Test","ON","No",1300,NA,NA,NA,NA,NA,NA,NA,NA
"A2RAC1CU8YLGPC","Collector",1,223,"2016-05-27T12:16:16-07:00","3",1,"Stimuli/versionCstim.txt","Procedure/versionCproc.txt","Tetris",NA,"CANDLE","","CANDLE","OFF","NPLI_AdHoc_Recall",231,"seqrec","No","User","RGN Test","ON","No",1180,NA,NA,NA,NA,NA,NA,NA,NA
"A2RAC1CU8YLGPC","Collector",1,224,"2016-05-27T12:16:19-07:00","3",1,"Stimuli/versionCstim.txt","Procedure/versionCproc.txt","Tetris",NA,"STAIRS","","STAIRS","OFF","LI_AdHoc_Recall",179,"seqrec","No","User","RGN Test","ON","Yes",1220,NA,NA,NA,NA,NA,NA,NA,NA
"A2RAC1CU8YLGPC","Collector",1,225,"2016-05-27T12:16:23-07:00","4",1,"Stimuli/versionCstim.txt","Procedure/versionCproc.txt","Tetris",NA,"RAKE","","RAKE","OFF","NPCI_Cat_Recall",294,"seqrec","No","User","RGN Test","ON","No",2250,NA,NA,NA,NA,NA,NA,NA,NA
"A2RAC1CU8YLGPC","Collector",1,226,"2016-05-27T12:16:26-07:00","3",1,"Stimuli/versionCstim.txt","Procedure/versionCproc.txt","Tetris",NA,"CANYON","","CANYON","OFF","NPLI_Unrel_Recall",217,"seqrec","No","User","RGN Test","ON","No",1490,NA,NA,NA,NA,NA,NA,NA,NA
"A2RAC1CU8YLGPC","Collector",1,227,"2016-05-27T12:16:30-07:00","4",1,"Stimuli/versionCstim.txt","Procedure/versionCproc.txt","Tetris",NA,"NYLON","","NYLON","OFF","CI_Cat_Recall",204,"seqrec","No","User","RGN Test","ON","No",2170,NA,NA,NA,NA,NA,NA,NA,NA
"A2RAC1CU8YLGPC","Collector",1,228,"2016-05-27T12:16:33-07:00","3",1,"Stimuli/versionCstim.txt","Procedure/versionCproc.txt","Tetris",NA,"LYCRA","","LYCRA","OFF","LI_Cat_Recall",171,"seqrec","No","User","RGN Test","ON","Yes",1310,NA,NA,NA,NA,NA,NA,NA,NA
"A2RAC1CU8YLGPC","Collector",1,229,"2016-05-27T12:16:36-07:00","3",1,"Stimuli/versionCstim.txt","Procedure/versionCproc.txt","Tetris",NA,"LASER","","LASER","OFF","NPLI_Unrel_Recall",271,"seqrec","No","User","RGN Test","ON","No",1250,NA,NA,NA,NA,NA,NA,NA,NA
"A2RAC1CU8YLGPC","Collector",1,230,"2016-05-27T12:16:38-07:00","2",1,"Stimuli/versionCstim.txt","Procedure/versionCproc.txt","Tetris",NA,"KNIGHT","","KNIGHT","OFF","CI_Unrel_Recall",197,"seqrec","No","User","RGN Test","ON","No",950,NA,NA,NA,NA,NA,NA,NA,NA
"A2RAC1CU8YLGPC","Collector",1,231,"2016-05-27T12:16:41-07:00","3",1,"Stimuli/versionCstim.txt","Procedure/versionCproc.txt","Tetris",NA,"CABLE","","CABLE","OFF","CI_Unrel_Recall",193,"seqrec","No","User","RGN Test","ON","No",860,NA,NA,NA,NA,NA,NA,NA,NA
"A2RAC1CU8YLGPC","Collector",1,232,"2016-05-27T12:16:43-07:00","2",1,"Stimuli/versionCstim.txt","Procedure/versionCproc.txt","Tetris",NA,"LEATHER","","LEATHER","OFF","CI_Cat_Recall",205,"seqrec","No","User","RGN Test","ON","No",1020,NA,NA,NA,NA,NA,NA,NA,NA
"A2RAC1CU8YLGPC","Collector",1,233,"2016-05-27T12:16:47-07:00","4",1,"Stimuli/versionCstim.txt","Procedure/versionCproc.txt","Tetris",NA,"STICK","","STICK","OFF","CI_AdHoc_Recall",208,"seqrec","No","User","RGN Test","ON","No",900,NA,NA,NA,NA,NA,NA,NA,NA
"A2RAC1CU8YLGPC","Collector",1,234,"2016-05-27T12:16:50-07:00","3",1,"Stimuli/versionCstim.txt","Procedure/versionCproc.txt","Tetris",NA,"PLANET","","PLANET","OFF","CI_AdHoc_Recall",188,"seqrec","No","User","RGN Test","ON","No",900,NA,NA,NA,NA,NA,NA,NA,NA
"A2RAC1CU8YLGPC","Collector",1,235,"2016-05-27T12:16:56-07:00","6",1,"Stimuli/versionCstim.txt","Procedure/versionCproc.txt","Tetris",NA,"PENCIL","","PENCIL","OFF","LI_AdHoc_Recall",174,"seqrec","No","User","RGN Test","ON","Yes",1590,NA,NA,NA,NA,NA,NA,NA,NA
"A2RAC1CU8YLGPC","Collector",1,236,"2016-05-27T12:16:59-07:00","3",1,"Stimuli/versionCstim.txt","Procedure/versionCproc.txt","Tetris",NA,"KNOCK","","KNOCK","OFF","NPLI_Unrel_Recall",266,"seqrec","No","User","RGN Test","ON","No",1220,NA,NA,NA,NA,NA,NA,NA,NA
"A2RAC1CU8YLGPC","Collector",1,237,"2016-05-27T12:17:02-07:00","3",1,"Stimuli/versionCstim.txt","Procedure/versionCproc.txt","Tetris",NA,"SPRINKLER","","SPRINKLER","OFF","NPLI_Cat_Recall",256,"seqrec","No","User","RGN Test","ON","No",810,NA,NA,NA,NA,NA,NA,NA,NA
"A2RAC1CU8YLGPC","Collector",1,238,"2016-05-27T12:17:04-07:00","2",1,"Stimuli/versionCstim.txt","Procedure/versionCproc.txt","Tetris",NA,"TRIMMER","","TRIMMER","OFF","NPLI_Cat_Recall",259,"seqrec","No","User","RGN Test","ON","No",870,NA,NA,NA,NA,NA,NA,NA,NA
"A2RAC1CU8YLGPC","Collector",1,239,"2016-05-27T12:17:07-07:00","3",1,"Stimuli/versionCstim.txt","Procedure/versionCproc.txt","Tetris",NA,"PLUNGER","","PLUNGER","OFF","NPLI_AdHoc_Recall",228,"seqrec","No","User","RGN Test","ON","No",800,NA,NA,NA,NA,NA,NA,NA,NA
"A2RAC1CU8YLGPC","Collector",1,240,"2016-05-27T12:17:10-07:00","3",1,"Stimuli/versionCstim.txt","Procedure/versionCproc.txt","Tetris",NA,"LINEN","","LINEN","OFF","LI_Cat_Recall",162,"seqrec","No","User","RGN Test","ON","No",1270,NA,NA,NA,NA,NA,NA,NA,NA
"A2RAC1CU8YLGPC","Collector",1,241,"2016-05-27T12:17:15-07:00","5",1,"Stimuli/versionCstim.txt","Procedure/versionCproc.txt","Tetris",NA,"DENIUM","","DENIUM","OFF","LI_Cat_Recall",164,"seqrec","No","User","RGN Test","ON","Yes",1830,NA,NA,NA,NA,NA,NA,NA,NA
"A2RAC1CU8YLGPC","Collector",1,242,"2016-05-27T12:17:18-07:00","3",1,"Stimuli/versionCstim.txt","Procedure/versionCproc.txt","Tetris",NA,"SHOVEL","","SHOVEL","OFF","NPCI_Cat_Recall",292,"seqrec","No","User","RGN Test","ON","No",1080,NA,NA,NA,NA,NA,NA,NA,NA
"A2RAC1CU8YLGPC","Collector",1,243,"2016-05-27T12:17:22-07:00","4",1,"Stimuli/versionCstim.txt","Procedure/versionCproc.txt","Tetris",NA,"ROSEMARY","","ROSEMARY","OFF","LI_Cat_Recall",127,"seqrec","No","User","RGN Test","ON","No",1120,NA,NA,NA,NA,NA,NA,NA,NA
"A2RAC1CU8YLGPC","Collector",1,244,"2016-05-27T12:17:25-07:00","3",1,"Stimuli/versionCstim.txt","Procedure/versionCproc.txt","Tetris",NA,"GYROSCOPE","","GYROSCOPE","OFF","LI_AdHoc_Recall",136,"seqrec","No","User","RGN Test","ON","Yes",1780,NA,NA,NA,NA,NA,NA,NA,NA
"A2RAC1CU8YLGPC","Collector",1,245,"2016-05-27T12:17:28-07:00","3",1,"Stimuli/versionCstim.txt","Procedure/versionCproc.txt","Tetris",NA,"CHILI POWDER","","CHILI POWDER","OFF","LI_Cat_Recall",129,"seqrec","No","User","RGN Test","ON","Yes",1100,NA,NA,NA,NA,NA,NA,NA,NA
"A2RAC1CU8YLGPC","Collector",1,246,"2016-05-27T12:17:31-07:00","3",1,"Stimuli/versionCstim.txt","Procedure/versionCproc.txt","Tetris",NA,"PALACE","","PALACE","OFF","NPLI_Cat_Recall",250,"seqrec","No","User","RGN Test","ON","No",1250,NA,NA,NA,NA,NA,NA,NA,NA
"A2RAC1CU8YLGPC","Collector",1,247,"2016-05-27T12:17:33-07:00","2",1,"Stimuli/versionCstim.txt","Procedure/versionCproc.txt","Tetris",NA,"DOWEL","","DOWEL","OFF","NPLI_Unrel_Recall",267,"seqrec","No","User","RGN Test","ON","No",810,NA,NA,NA,NA,NA,NA,NA,NA
"A2RAC1CU8YLGPC","Collector",1,248,"2016-05-27T12:17:36-07:00","3",1,"Stimuli/versionCstim.txt","Procedure/versionCproc.txt","Tetris",NA,"CEREAL","","CEREAL","OFF","NPLI_Unrel_Recall",218,"seqrec","No","User","RGN Test","ON","No",880,NA,NA,NA,NA,NA,NA,NA,NA
"A2RAC1CU8YLGPC","Collector",1,249,"2016-05-27T12:17:38-07:00","2",1,"Stimuli/versionCstim.txt","Procedure/versionCproc.txt","Tetris",NA,"SHACK","","SHACK","OFF","NPLI_Cat_Recall",243,"seqrec","No","User","RGN Test","ON","No",750,NA,NA,NA,NA,NA,NA,NA,NA
"A2RAC1CU8YLGPC","Collector",1,250,"2016-05-27T12:17:42-07:00","4",1,"Stimuli/versionCstim.txt","Procedure/versionCproc.txt","Tetris",NA,"TOILET","","TOILET","OFF","NPCI_AdHoc_Recall",278,"seqrec","No","User","RGN Test","ON","No",750,NA,NA,NA,NA,NA,NA,NA,NA
"A2RAC1CU8YLGPC","Collector",1,251,"2016-05-27T12:17:45-07:00","3",1,"Stimuli/versionCstim.txt","Procedure/versionCproc.txt","Tetris",NA,"TOOTHBRUSH","","TOOTHBRUSH","OFF","NPCI_AdHoc_Recall",279,"seqrec","No","User","RGN Test","ON","No",1010,NA,NA,NA,NA,NA,NA,NA,NA
"A2RAC1CU8YLGPC","Collector",1,252,"2016-05-27T12:17:48-07:00","3",1,"Stimuli/versionCstim.txt","Procedure/versionCproc.txt","Tetris",NA,"ADMIRAL","","ADMIRAL","OFF","CI_Unrel_Recall",192,"seqrec","No","User","RGN Test","ON","No",1110,NA,NA,NA,NA,NA,NA,NA,NA
"A2RAC1CU8YLGPC","Collector",1,253,"2016-05-27T12:17:52-07:00","4",1,"Stimuli/versionCstim.txt","Procedure/versionCproc.txt","Tetris",NA,"BAY LEAVES","","BAY LEAVES","OFF","LI_Cat_Recall",125,"seqrec","No","User","RGN Test","ON","Yes",2330,NA,NA,NA,NA,NA,NA,NA,NA
"A2RAC1CU8YLGPC","Collector",1,254,"2016-05-27T12:17:55-07:00","3",1,"Stimuli/versionCstim.txt","Procedure/versionCproc.txt","Tetris",NA,"BENCH","","BENCH","OFF","LI_AdHoc_Recall",178,"seqrec","No","User","RGN Test","ON","Yes",1420,NA,NA,NA,NA,NA,NA,NA,NA
"A2RAC1CU8YLGPC","Collector",1,255,"2016-05-27T12:17:58-07:00","3",1,"Stimuli/versionCstim.txt","Procedure/versionCproc.txt","Tetris",NA,"SATIN","","SATIN","OFF","CI_Cat_Recall",206,"seqrec","No","User","RGN Test","ON","No",1270,NA,NA,NA,NA,NA,NA,NA,NA
"A2RAC1CU8YLGPC","Collector",1,256,"2016-05-27T12:18:00-07:00","2",1,"Stimuli/versionCstim.txt","Procedure/versionCproc.txt","Tetris",NA,"SLED","","SLED","OFF","LI_AdHoc_Recall",180,"seqrec","No","User","RGN Test","ON","No",1010,NA,NA,NA,NA,NA,NA,NA,NA
"A2RAC1CU8YLGPC","Collector",1,257,"2016-05-27T12:18:03-07:00","3",1,"Stimuli/versionCstim.txt","Procedure/versionCproc.txt","Tetris",NA,"VALVE","","VALVE","OFF","LI_Unrel_Recall",154,"seqrec","No","User","RGN Test","ON","No",980,NA,NA,NA,NA,NA,NA,NA,NA
"A2RAC1CU8YLGPC","Collector",1,258,"2016-05-27T12:18:06-07:00","3",1,"Stimuli/versionCstim.txt","Procedure/versionCproc.txt","Tetris",NA,"SPHERE","","SPHERE","OFF","LI_AdHoc_Recall",134,"seqrec","No","User","RGN Test","ON","No",1010,NA,NA,NA,NA,NA,NA,NA,NA
"A2RAC1CU8YLGPC","Collector",1,259,"2016-05-27T12:18:10-07:00","4",1,"Stimuli/versionCstim.txt","Procedure/versionCproc.txt","Tetris",NA,"FLURRY","","FLURRY","OFF","NPLI_Unrel_Recall",214,"seqrec","No","User","RGN Test","ON","No",1150,NA,NA,NA,NA,NA,NA,NA,NA
"A2RAC1CU8YLGPC","Collector",1,260,"2016-05-27T12:18:12-07:00","2",1,"Stimuli/versionCstim.txt","Procedure/versionCproc.txt","Tetris",NA,"LANTERN","","LANTERN","OFF","LI_Unrel_Recall",143,"seqrec","No","User","RGN Test","ON","No",880,NA,NA,NA,NA,NA,NA,NA,NA
"A2RAC1CU8YLGPC","Collector",1,261,"2016-05-27T12:18:15-07:00","3",1,"Stimuli/versionCstim.txt","Procedure/versionCproc.txt","Tetris",NA,"CELL","","CELL","OFF","NPLI_AdHoc_Recall",232,"seqrec","No","User","RGN Test","ON","No",750,NA,NA,NA,NA,NA,NA,NA,NA
"A2RAC1CU8YLGPC","Collector",1,262,"2016-05-27T12:18:19-07:00","4",1,"Stimuli/versionCstim.txt","Procedure/versionCproc.txt","Tetris",NA,"TURMERIC","","TURMERIC","OFF","LI_Cat_Recall",131,"seqrec","No","User","RGN Test","ON","Yes",2200,NA,NA,NA,NA,NA,NA,NA,NA
"A2RAC1CU8YLGPC","Collector",1,263,"2016-05-27T12:18:21-07:00","2",1,"Stimuli/versionCstim.txt","Procedure/versionCproc.txt","Tetris",NA,"HOE","","HOE","OFF","NPCI_Cat_Recall",293,"seqrec","No","User","RGN Test","ON","No",880,NA,NA,NA,NA,NA,NA,NA,NA
"A2RAC1CU8YLGPC","Collector",1,264,"2016-05-27T12:18:24-07:00","3",1,"Stimuli/versionCstim.txt","Procedure/versionCproc.txt","Tetris",NA,"CALENDAR","","CALENDAR","OFF","CI_Unrel_Recall",196,"seqrec","No","User","RGN Test","ON","No",690,NA,NA,NA,NA,NA,NA,NA,NA
"A2RAC1CU8YLGPC","Collector",1,265,"2016-05-27T12:18:26-07:00","2",1,"Stimuli/versionCstim.txt","Procedure/versionCproc.txt","Tetris",NA,"BUCKET","","BUCKET","OFF","NPLI_Cat_Recall",255,"seqrec","No","User","RGN Test","ON","No",730,NA,NA,NA,NA,NA,NA,NA,NA
"A2RAC1CU8YLGPC","Collector",1,266,"2016-05-27T12:18:29-07:00","3",1,"Stimuli/versionCstim.txt","Procedure/versionCproc.txt","Tetris",NA,"PAPRIKA","","PAPRIKA","OFF","CI_Cat_Recall",184,"seqrec","No","User","RGN Test","ON","No",1080,NA,NA,NA,NA,NA,NA,NA,NA
"A2RAC1CU8YLGPC","Collector",1,267,"2016-05-27T12:18:33-07:00","4",1,"Stimuli/versionCstim.txt","Procedure/versionCproc.txt","Tetris",NA,"DOOR","","DOOR","OFF","LI_AdHoc_Recall",173,"seqrec","No","User","RGN Test","ON","Yes",1800,NA,NA,NA,NA,NA,NA,NA,NA
"A2RAC1CU8YLGPC","Collector",1,268,"2016-05-27T12:18:36-07:00","3",1,"Stimuli/versionCstim.txt","Procedure/versionCproc.txt","Tetris",NA,"WIZARD","","WIZARD","OFF","NPLI_Unrel_Recall",264,"seqrec","No","User","RGN Test","ON","No",1050,NA,NA,NA,NA,NA,NA,NA,NA
"A2RAC1CU8YLGPC","Collector",1,269,"2016-05-27T12:18:38-07:00","2",1,"Stimuli/versionCstim.txt","Procedure/versionCproc.txt","Tetris",NA,"WOOL","","WOOL","OFF","CI_Cat_Recall",202,"seqrec","No","User","RGN Test","ON","No",630,NA,NA,NA,NA,NA,NA,NA,NA
"A2RAC1CU8YLGPC","Collector",1,270,"2016-05-27T12:18:40-07:00","2",1,"Stimuli/versionCstim.txt","Procedure/versionCproc.txt","Tetris",NA,"TEPEE","","TEPEE","OFF","NPLI_Cat_Recall",246,"seqrec","No","User","RGN Test","ON","No",810,NA,NA,NA,NA,NA,NA,NA,NA
"A2RAC1CU8YLGPC","Collector",1,271,"2016-05-27T12:18:44-07:00","4",1,"Stimuli/versionCstim.txt","Procedure/versionCproc.txt","Tetris",NA,"POLYESTER","","POLYESTER","OFF","LI_Cat_Recall",167,"seqrec","No","User","RGN Test","ON","Yes",1970,NA,NA,NA,NA,NA,NA,NA,NA
"A2RAC1CU8YLGPC","Collector",1,272,"2016-05-27T12:18:47-07:00","3",1,"Stimuli/versionCstim.txt","Procedure/versionCproc.txt","Tetris",NA,"WHEELBARROW","","WHEELBARROW","OFF","NPLI_Cat_Recall",260,"seqrec","No","User","RGN Test","ON","No",990,NA,NA,NA,NA,NA,NA,NA,NA
"A2RAC1CU8YLGPC","Collector",1,273,"2016-05-27T12:18:49-07:00","2",1,"Stimuli/versionCstim.txt","Procedure/versionCproc.txt","Tetris",NA,"NEEDLE","","NEEDLE","OFF","NPLI_AdHoc_Recall",240,"seqrec","No","User","RGN Test","ON","No",680,NA,NA,NA,NA,NA,NA,NA,NA
"A2RAC1CU8YLGPC","Collector",1,274,"2016-05-27T12:18:53-07:00","4",1,"Stimuli/versionCstim.txt","Procedure/versionCproc.txt","Tetris",NA,"DENTIST","","DENTIST","OFF","LI_Unrel_Recall",161,"seqrec","No","User","RGN Test","ON","Yes",1810,NA,NA,NA,NA,NA,NA,NA,NA
"A2RAC1CU8YLGPC","Collector",1,275,"2016-05-27T12:18:56-07:00","3",1,"Stimuli/versionCstim.txt","Procedure/versionCproc.txt","Tetris",NA,"ACORN","","ACORN","OFF","LI_Unrel_Recall",160,"seqrec","No","User","RGN Test","ON","No",1210,NA,NA,NA,NA,NA,NA,NA,NA
"A2RAC1CU8YLGPC","Collector",1,276,"2016-05-27T12:18:58-07:00","2",1,"Stimuli/versionCstim.txt","Procedure/versionCproc.txt","Tetris",NA,"HERMIT","","HERMIT","OFF","LI_Unrel_Recall",146,"seqrec","No","User","RGN Test","ON","No",900,NA,NA,NA,NA,NA,NA,NA,NA
"A2RAC1CU8YLGPC","Collector",1,277,"2016-05-27T12:19:00-07:00","2",1,"Stimuli/versionCstim.txt","Procedure/versionCproc.txt","Tetris",NA,"DETOUR","","DETOUR","OFF","NPLI_Unrel_Recall",212,"seqrec","No","User","RGN Test","ON","No",700,NA,NA,NA,NA,NA,NA,NA,NA
"A2RAC1CU8YLGPC","Collector",1,278,"2016-05-27T12:19:03-07:00","3",1,"Stimuli/versionCstim.txt","Procedure/versionCproc.txt","Tetris",NA,"CURRY","","CURRY","OFF","LI_Cat_Recall",126,"seqrec","No","User","RGN Test","ON","Yes",1380,NA,NA,NA,NA,NA,NA,NA,NA
"A2RAC1CU8YLGPC","Collector",1,279,"2016-05-27T12:19:06-07:00","3",1,"Stimuli/versionCstim.txt","Procedure/versionCproc.txt","Tetris",NA,"CREST","","CREST","OFF","LI_Unrel_Recall",159,"seqrec","No","User","RGN Test","ON","No",1320,NA,NA,NA,NA,NA,NA,NA,NA
"A2RAC1CU8YLGPC","Collector",1,280,"2016-05-27T12:19:09-07:00","3",1,"Stimuli/versionCstim.txt","Procedure/versionCproc.txt","Tetris",NA,"FAN","","FAN","OFF","CI_AdHoc_Recall",187,"seqrec","No","User","RGN Test","ON","No",1290,NA,NA,NA,NA,NA,NA,NA,NA
"A2RAC1CU8YLGPC","Collector",1,281,"2016-05-27T12:19:12-07:00","3",1,"Stimuli/versionCstim.txt","Procedure/versionCproc.txt","Tetris",NA,"FINGERPRINTS","","FINGERPRINTS","OFF","NPLI_AdHoc_Recall",233,"seqrec","No","User","RGN Test","ON","No",890,NA,NA,NA,NA,NA,NA,NA,NA
"A2RAC1CU8YLGPC","Collector",1,282,"2016-05-27T12:19:14-07:00","2",1,"Stimuli/versionCstim.txt","Procedure/versionCproc.txt","Tetris",NA,"WINDMILL","","WINDMILL","OFF","LI_AdHoc_Recall",140,"seqrec","No","User","RGN Test","ON","No",720,NA,NA,NA,NA,NA,NA,NA,NA
"A2RAC1CU8YLGPC","Collector",1,283,"2016-05-27T12:19:17-07:00","3",1,"Stimuli/versionCstim.txt","Procedure/versionCproc.txt","Tetris",NA,"DUPLEX","","DUPLEX","OFF","NPLI_Cat_Recall",249,"seqrec","No","User","RGN Test","ON","No",950,NA,NA,NA,NA,NA,NA,NA,NA
"A2RAC1CU8YLGPC","Collector",1,284,"2016-05-27T12:19:21-07:00","4",1,"Stimuli/versionCstim.txt","Procedure/versionCproc.txt","Tetris",NA,"BRISKET","","BRISKET","OFF","NPCI_Unrel_Recall",298,"seqrec","No","User","RGN Test","ON","No",1020,NA,NA,NA,NA,NA,NA,NA,NA
"A2RAC1CU8YLGPC","Collector",1,285,"2016-05-27T12:19:23-07:00","2",1,"Stimuli/versionCstim.txt","Procedure/versionCproc.txt","Tetris",NA,"BLOSSOM","","BLOSSOM","OFF","LI_Unrel_Recall",153,"seqrec","No","User","RGN Test","ON","No",760,NA,NA,NA,NA,NA,NA,NA,NA
"A2RAC1CU8YLGPC","Collector",1,286,"2016-05-27T12:19:26-07:00","3",1,"Stimuli/versionCstim.txt","Procedure/versionCproc.txt","Tetris",NA,"AVENUE","","AVENUE","OFF","NPLI_Unrel_Recall",213,"seqrec","No","User","RGN Test","ON","No",840,NA,NA,NA,NA,NA,NA,NA,NA
"A2RAC1CU8YLGPC","Collector",1,287,"2016-05-27T12:19:29-07:00","3",1,"Stimuli/versionCstim.txt","Procedure/versionCproc.txt","Tetris",NA,"VANITY","","VANITY","OFF","NPLI_AdHoc_Recall",229,"seqrec","No","User","RGN Test","ON","No",1190,NA,NA,NA,NA,NA,NA,NA,NA
"A2RAC1CU8YLGPC","Collector",1,288,"2016-05-27T12:19:33-07:00","4",1,"Stimuli/versionCstim.txt","Procedure/versionCproc.txt","Tetris",NA,"BICYCLE","","BICYCLE","OFF","LI_AdHoc_Recall",137,"seqrec","No","User","RGN Test","ON","Yes",1350,NA,NA,NA,NA,NA,NA,NA,NA
"A2RAC1CU8YLGPC","Collector",1,289,"2016-05-27T12:19:37-07:00","4",1,"Stimuli/versionCstim.txt","Procedure/versionCproc.txt","Tetris",NA,"CANTEEN","","CANTEEN","OFF","LI_Unrel_Recall",151,"seqrec","No","User","RGN Test","ON","No",2080,NA,NA,NA,NA,NA,NA,NA,NA
"A2RAC1CU8YLGPC","Collector",1,290,"2016-05-27T12:19:39-07:00","2",1,"Stimuli/versionCstim.txt","Procedure/versionCproc.txt","Tetris",NA,"WARDEN","","WARDEN","OFF","NPCI_AdHoc_Recall",286,"seqrec","No","User","RGN Test","ON","No",840,NA,NA,NA,NA,NA,NA,NA,NA
"A2RAC1CU8YLGPC","Collector",1,291,"2016-05-27T12:19:41-07:00","2",1,"Stimuli/versionCstim.txt","Procedure/versionCproc.txt","Tetris",NA,"IGLOO","","IGLOO","OFF","NPLI_Cat_Recall",245,"seqrec","No","User","RGN Test","ON","No",870,NA,NA,NA,NA,NA,NA,NA,NA
"A2RAC1CU8YLGPC","Collector",1,292,"2016-05-27T12:19:44-07:00","3",1,"Stimuli/versionCstim.txt","Procedure/versionCproc.txt","Tetris",NA,"LACE","","LACE","OFF","LI_Cat_Recall",169,"seqrec","No","User","RGN Test","ON","No",1200,NA,NA,NA,NA,NA,NA,NA,NA
"A2RAC1CU8YLGPC","Collector",1,293,"2016-05-27T12:19:47-07:00","3",1,"Stimuli/versionCstim.txt","Procedure/versionCproc.txt","Tetris",NA,"OFFICER","","OFFICER","OFF","NPLI_AdHoc_Recall",239,"seqrec","No","User","RGN Test","ON","No",910,NA,NA,NA,NA,NA,NA,NA,NA
"A2RAC1CU8YLGPC","Collector",1,294,"2016-05-27T12:19:49-07:00","2",1,"Stimuli/versionCstim.txt","Procedure/versionCproc.txt","Tetris",NA,"TROWEL","","TROWEL","OFF","NPLI_Cat_Recall",254,"seqrec","No","User","RGN Test","ON","No",810,NA,NA,NA,NA,NA,NA,NA,NA
"A2RAC1CU8YLGPC","Collector",1,295,"2016-05-27T12:19:52-07:00","3",1,"Stimuli/versionCstim.txt","Procedure/versionCproc.txt","Tetris",NA,"QUICHE","","QUICHE","OFF","LI_Unrel_Recall",152,"seqrec","No","User","RGN Test","ON","Yes",1400,NA,NA,NA,NA,NA,NA,NA,NA
"A2RAC1CU8YLGPC","Collector",1,296,"2016-05-27T12:19:56-07:00","4",1,"Stimuli/versionCstim.txt","Procedure/versionCproc.txt","Tetris",NA,"DIARY","","DIARY","OFF","NPCI_Unrel_Recall",300,"seqrec","No","User","RGN Test","ON","No",1840,NA,NA,NA,NA,NA,NA,NA,NA
"A2RAC1CU8YLGPC","Collector",1,297,"2016-05-27T12:19:59-07:00","3",1,"Stimuli/versionCstim.txt","Procedure/versionCproc.txt","Tetris",NA,"CLIPPERS","","CLIPPERS","OFF","NPLI_Cat_Recall",258,"seqrec","No","User","RGN Test","ON","No",1140,NA,NA,NA,NA,NA,NA,NA,NA
"A2RAC1CU8YLGPC","Collector",1,298,"2016-05-27T12:20:01-07:00","2",1,"Stimuli/versionCstim.txt","Procedure/versionCproc.txt","Tetris",NA,"ROTOR","","ROTOR","OFF","CI_AdHoc_Recall",191,"seqrec","No","User","RGN Test","ON","No",660,NA,NA,NA,NA,NA,NA,NA,NA
"A2RAC1CU8YLGPC","Collector",1,299,"2016-05-27T12:20:03-07:00","2",1,"Stimuli/versionCstim.txt","Procedure/versionCproc.txt","Tetris",NA,"MEDICINE","","MEDICINE","OFF","NPLI_AdHoc_Recall",224,"seqrec","No","User","RGN Test","ON","No",770,NA,NA,NA,NA,NA,NA,NA,NA
"A2RAC1CU8YLGPC","Collector",1,300,"2016-05-27T12:20:07-07:00","4",1,"Stimuli/versionCstim.txt","Procedure/versionCproc.txt","Tetris",NA,"BASEBALL BAT","","BASEBALL BAT","OFF","LI_AdHoc_Recall",177,"seqrec","No","User","RGN Test","ON","Yes",1540,NA,NA,NA,NA,NA,NA,NA,NA
"A2RAC1CU8YLGPC","Collector",1,301,"2016-05-27T12:20:09-07:00","2",1,"Stimuli/versionCstim.txt","Procedure/versionCproc.txt","Tetris",NA,"DREIDEL","","DREIDEL","OFF","LI_AdHoc_Recall",133,"seqrec","No","User","RGN Test","ON","No",730,NA,NA,NA,NA,NA,NA,NA,NA
"A2RAC1CU8YLGPC","Collector",1,302,"2016-05-27T12:20:14-07:00","5",1,"Stimuli/versionCstim.txt","Procedure/versionCproc.txt","Tetris",NA,"CELERY SEED","","CELERY SEED","OFF","LI_Cat_Recall",130,"seqrec","No","User","RGN Test","ON","No",2490,NA,NA,NA,NA,NA,NA,NA,NA
"A2RAC1CU8YLGPC","Collector",1,303,"2016-05-27T12:20:16-07:00","2",1,"Stimuli/versionCstim.txt","Procedure/versionCproc.txt","Tetris",NA,"JUMPSUIT","","JUMPSUIT","OFF","NPCI_AdHoc_Recall",284,"seqrec","No","User","RGN Test","ON","No",960,NA,NA,NA,NA,NA,NA,NA,NA
"A2RAC1CU8YLGPC","Collector",1,304,"2016-05-27T12:20:19-07:00","3",1,"Stimuli/versionCstim.txt","Procedure/versionCproc.txt","Tetris",NA,"FIGHTS","","FIGHTS","OFF","NPLI_AdHoc_Recall",238,"seqrec","No","User","RGN Test","ON","No",940,NA,NA,NA,NA,NA,NA,NA,NA
"A2RAC1CU8YLGPC","Collector",1,305,"2016-05-27T12:20:21-07:00","2",1,"Stimuli/versionCstim.txt","Procedure/versionCproc.txt","Tetris",NA,"DEODORANT","","DEODORANT","OFF","NPLI_AdHoc_Recall",226,"seqrec","No","User","RGN Test","ON","No",930,NA,NA,NA,NA,NA,NA,NA,NA
"A2RAC1CU8YLGPC","Collector",1,306,"2016-05-27T12:20:24-07:00","3",1,"Stimuli/versionCstim.txt","Procedure/versionCproc.txt","Tetris",NA,"HUT","","HUT","OFF","NPCI_Cat_Recall",290,"seqrec","No","User","RGN Test","ON","No",940,NA,NA,NA,NA,NA,NA,NA,NA
"A2RAC1CU8YLGPC","Collector",1,307,"2016-05-27T12:20:26-07:00","2",1,"Stimuli/versionCstim.txt","Procedure/versionCproc.txt","Tetris",NA,"ISSUE","","ISSUE","OFF","NPCI_Unrel_Recall",274,"seqrec","No","User","RGN Test","ON","No",780,NA,NA,NA,NA,NA,NA,NA,NA
"A2RAC1CU8YLGPC","Collector",1,308,"2016-05-27T12:20:31-07:00","5",1,"Stimuli/versionCstim.txt","Procedure/versionCproc.txt","Tetris",NA,"INFANT","","INFANT","OFF","LI_Unrel_Recall",155,"seqrec","No","User","RGN Test","ON","Yes",1850,NA,NA,NA,NA,NA,NA,NA,NA
"A2RAC1CU8YLGPC","Collector",1,309,"2016-05-27T12:20:34-07:00","3",1,"Stimuli/versionCstim.txt","Procedure/versionCproc.txt","Tetris",NA,"WORSTED","","WORSTED","OFF","LI_Cat_Recall",163,"seqrec","No","User","RGN Test","ON","No",1130,NA,NA,NA,NA,NA,NA,NA,NA
"A2RAC1CU8YLGPC","Collector",1,310,"2016-05-27T12:20:36-07:00","2",1,"Stimuli/versionCstim.txt","Procedure/versionCproc.txt","Tetris",NA,"EPISODE","","EPISODE","OFF","LI_Unrel_Recall",145,"seqrec","No","User","RGN Test","ON","No",990,NA,NA,NA,NA,NA,NA,NA,NA
"A2RAC1CU8YLGPC","Collector",1,311,"2016-05-27T12:20:39-07:00","3",1,"Stimuli/versionCstim.txt","Procedure/versionCproc.txt","Tetris",NA,"BLAZE","","BLAZE","OFF","NPLI_Unrel_Recall",220,"seqrec","No","User","RGN Test","ON","No",980,NA,NA,NA,NA,NA,NA,NA,NA
"A2RAC1CU8YLGPC","Collector",1,312,"2016-05-27T12:20:42-07:00","3",1,"Stimuli/versionCstim.txt","Procedure/versionCproc.txt","Tetris",NA,"TERRY","","TERRY","OFF","LI_Cat_Recall",166,"seqrec","No","User","RGN Test","ON","Yes",1300,NA,NA,NA,NA,NA,NA,NA,NA
"A2RAC1CU8YLGPC","Collector",1,313,"2016-05-27T12:20:45-07:00","3",1,"Stimuli/versionCstim.txt","Procedure/versionCproc.txt","Tetris",NA,"BILLBOARD","","BILLBOARD","OFF","NPCI_Unrel_Recall",301,"seqrec","No","User","RGN Test","ON","No",1570,NA,NA,NA,NA,NA,NA,NA,NA
"A2RAC1CU8YLGPC","Collector",1,314,"2016-05-27T12:20:51-07:00","6",1,"Stimuli/versionCstim.txt","Procedure/versionCproc.txt","Tetris",NA,"JERSEY","","JERSEY","OFF","LI_Cat_Recall",168,"seqrec","No","User","RGN Test","ON","Yes",1370,NA,NA,NA,NA,NA,NA,NA,NA
"A2RAC1CU8YLGPC","Collector",1,315,"2016-05-27T12:20:54-07:00","3",1,"Stimuli/versionCstim.txt","Procedure/versionCproc.txt","Tetris",NA,"LANDMARK","","LANDMARK","OFF","NPLI_Unrel_Recall",262,"seqrec","No","User","RGN Test","ON","No",1550,NA,NA,NA,NA,NA,NA,NA,NA
"A2RAC1CU8YLGPC","Collector",1,316,"2016-05-27T12:20:57-07:00","3",1,"Stimuli/versionCstim.txt","Procedure/versionCproc.txt","Tetris",NA,"DEBT","","DEBT","OFF","LI_Unrel_Recall",142,"seqrec","No","User","RGN Test","ON","Yes",1370,NA,NA,NA,NA,NA,NA,NA,NA
"A2RAC1CU8YLGPC","Collector",1,317,"2016-05-27T12:21:00-07:00","3",1,"Stimuli/versionCstim.txt","Procedure/versionCproc.txt","Tetris",NA,"WHIRLPOOL","","WHIRLPOOL","OFF","CI_Unrel_Recall",198,"seqrec","No","User","RGN Test","ON","No",1320,NA,NA,NA,NA,NA,NA,NA,NA
"A2RAC1CU8YLGPC","Collector",1,318,"2016-05-27T12:21:04-07:00","4",1,"Stimuli/versionCstim.txt","Procedure/versionCproc.txt","Tetris",NA,"GINGER","","GINGER","OFF","LI_Cat_Recall",128,"seqrec","No","User","RGN Test","ON","Yes",1290,NA,NA,NA,NA,NA,NA,NA,NA
"A2RAC1CU8YLGPC","Collector",1,319,"2016-05-27T12:21:07-07:00","3",1,"Stimuli/versionCstim.txt","Procedure/versionCproc.txt","Tetris",NA,"TABLE","","TABLE","OFF","LI_AdHoc_Recall",172,"seqrec","No","User","RGN Test","ON","Yes",1190,NA,NA,NA,NA,NA,NA,NA,NA
"A2RAC1CU8YLGPC","Collector",1,320,"2016-05-27T12:21:11-07:00","4",1,"Stimuli/versionCstim.txt","Procedure/versionCproc.txt","Tetris",NA,"COLOGNE","","COLOGNE","OFF","NPCI_AdHoc_Recall",280,"seqrec","No","User","RGN Test","ON","No",1250,NA,NA,NA,NA,NA,NA,NA,NA
"A2RAC1CU8YLGPC","Collector",1,321,"2016-05-27T12:21:15-07:00","4",1,"Stimuli/versionCstim.txt","Procedure/versionCproc.txt","Tetris",NA,"n/a","n/a","n/a","n/a","n/a",0,"Instruct","N/A","User","Click the button below to continue.","OFF","",2410,NA,NA,NA,NA,NA,NA,NA,NA
"A2RAC1CU8YLGPC","Collector",1,322,"2016-05-27T12:25:23-07:00","248",1,"Stimuli/versionCstim.txt","Procedure/versionCproc.txt","Tetris",NA,"n/a","n/a","n/a","n/a","n/a",0,"Instruct","N/A","User","You again will be presented with 6 lists of words, each containing 20 words, but now you will be presented with the list for a second time following each list. After each list is presented, the words will be presented to you again, but in a different order. Click the button below to begin the first list.","OFF","",217280,NA,NA,NA,NA,NA,NA,NA,NA
"A2RAC1CU8YLGPC","Collector",1,323,"2016-05-27T12:25:27-07:00","4",1,"Stimuli/versionCstim.txt","Procedure/versionCproc.txt","Tetris",NA,"BOXING","","BOXING","OFF","Cat_Restudy_L1",318,"Study","No","3","Cat_Restudy_L1","ON","",3000,NA,NA,NA,NA,NA,NA,NA,NA
"A2RAC1CU8YLGPC","Collector",1,324,"2016-05-27T12:25:33-07:00","6",1,"Stimuli/versionCstim.txt","Procedure/versionCproc.txt","Tetris",NA,"LACROSSE","","LACROSSE","OFF","Cat_Restudy_L1",306,"Study","No","3","Cat_Restudy_L1","ON","",3000,NA,NA,NA,NA,NA,NA,NA,NA
"A2RAC1CU8YLGPC","Collector",1,325,"2016-05-27T12:25:38-07:00","5",1,"Stimuli/versionCstim.txt","Procedure/versionCproc.txt","Tetris",NA,"WRESTLING","","WRESTLING","OFF","Cat_Restudy_L1",309,"Study","No","3","Cat_Restudy_L1","ON","",3000,NA,NA,NA,NA,NA,NA,NA,NA
"A2RAC1CU8YLGPC","Collector",1,326,"2016-05-27T12:25:43-07:00","5",1,"Stimuli/versionCstim.txt","Procedure/versionCproc.txt","Tetris",NA,"FISHING","","FISHING","OFF","Cat_Restudy_L1",316,"Study","No","3","Cat_Restudy_L1","ON","",3000,NA,NA,NA,NA,NA,NA,NA,NA
"A2RAC1CU8YLGPC","Collector",1,327,"2016-05-27T12:25:48-07:00","5",1,"Stimuli/versionCstim.txt","Procedure/versionCproc.txt","Tetris",NA,"GOLF","","GOLF","OFF","Cat_Restudy_L1",303,"Study","No","3","Cat_Restudy_L1","ON","",3000,NA,NA,NA,NA,NA,NA,NA,NA
"A2RAC1CU8YLGPC","Collector",1,328,"2016-05-27T12:25:53-07:00","5",1,"Stimuli/versionCstim.txt","Procedure/versionCproc.txt","Tetris",NA,"BOWLING","","BOWLING","OFF","Cat_Restudy_L1",308,"Study","No","3","Cat_Restudy_L1","ON","",3000,NA,NA,NA,NA,NA,NA,NA,NA
"A2RAC1CU8YLGPC","Collector",1,329,"2016-05-27T12:25:57-07:00","4",1,"Stimuli/versionCstim.txt","Procedure/versionCproc.txt","Tetris",NA,"RUGBY","","RUGBY","OFF","Cat_Restudy_L1",319,"Study","No","3","Cat_Restudy_L1","ON","",3000,NA,NA,NA,NA,NA,NA,NA,NA
"A2RAC1CU8YLGPC","Collector",1,330,"2016-05-27T12:26:02-07:00","5",1,"Stimuli/versionCstim.txt","Procedure/versionCproc.txt","Tetris",NA,"ARCHERY","","ARCHERY","OFF","Cat_Restudy_L1",311,"Study","No","3","Cat_Restudy_L1","ON","",3000,NA,NA,NA,NA,NA,NA,NA,NA
"A2RAC1CU8YLGPC","Collector",1,331,"2016-05-27T12:26:07-07:00","5",1,"Stimuli/versionCstim.txt","Procedure/versionCproc.txt","Tetris",NA,"RACING","","RACING","OFF","Cat_Restudy_L1",321,"Study","No","3","Cat_Restudy_L1","ON","",3000,NA,NA,NA,NA,NA,NA,NA,NA
"A2RAC1CU8YLGPC","Collector",1,332,"2016-05-27T12:26:12-07:00","5",1,"Stimuli/versionCstim.txt","Procedure/versionCproc.txt","Tetris",NA,"BADMINTON","","BADMINTON","OFF","Cat_Restudy_L1",307,"Study","No","3","Cat_Restudy_L1","ON","",3000,NA,NA,NA,NA,NA,NA,NA,NA
"A2RAC1CU8YLGPC","Collector",1,333,"2016-05-27T12:26:22-07:00","10",1,"Stimuli/versionCstim.txt","Procedure/versionCproc.txt","Tetris",NA,"FENCING","","FENCING","OFF","Cat_Restudy_L1",313,"Study","No","3","Cat_Restudy_L1","ON","",3000,NA,NA,NA,NA,NA,NA,NA,NA
"A2RAC1CU8YLGPC","Collector",1,334,"2016-05-27T12:26:27-07:00","5",1,"Stimuli/versionCstim.txt","Procedure/versionCproc.txt","Tetris",NA,"HOCKEY","","HOCKEY","OFF","Cat_Restudy_L1",304,"Study","No","3","Cat_Restudy_L1","ON","",3000,NA,NA,NA,NA,NA,NA,NA,NA
"A2RAC1CU8YLGPC","Collector",1,335,"2016-05-27T12:26:32-07:00","5",1,"Stimuli/versionCstim.txt","Procedure/versionCproc.txt","Tetris",NA,"SOFTBALL","","SOFTBALL","OFF","Cat_Restudy_L1",315,"Study","No","3","Cat_Restudy_L1","ON","",3000,NA,NA,NA,NA,NA,NA,NA,NA
"A2RAC1CU8YLGPC","Collector",1,336,"2016-05-27T12:26:38-07:00","6",1,"Stimuli/versionCstim.txt","Procedure/versionCproc.txt","Tetris",NA,"SOCCER","","SOCCER","OFF","Cat_Restudy_L1",302,"Study","No","3","Cat_Restudy_L1","ON","",3000,NA,NA,NA,NA,NA,NA,NA,NA
"A2RAC1CU8YLGPC","Collector",1,337,"2016-05-27T12:26:43-07:00","5",1,"Stimuli/versionCstim.txt","Procedure/versionCproc.txt","Tetris",NA,"VOLLEYBALL","","VOLLEYBALL","OFF","Cat_Restudy_L1",310,"Study","No","3","Cat_Restudy_L1","ON","",3000,NA,NA,NA,NA,NA,NA,NA,NA
"A2RAC1CU8YLGPC","Collector",1,338,"2016-05-27T12:26:48-07:00","5",1,"Stimuli/versionCstim.txt","Procedure/versionCproc.txt","Tetris",NA,"SKIING","","SKIING","OFF","Cat_Restudy_L1",312,"Study","No","3","Cat_Restudy_L1","ON","",3000,NA,NA,NA,NA,NA,NA,NA,NA
"A2RAC1CU8YLGPC","Collector",1,339,"2016-05-27T12:26:52-07:00","4",1,"Stimuli/versionCstim.txt","Procedure/versionCproc.txt","Tetris",NA,"POLO","","POLO","OFF","Cat_Restudy_L1",317,"Study","No","3","Cat_Restudy_L1","ON","",3000,NA,NA,NA,NA,NA,NA,NA,NA
"A2RAC1CU8YLGPC","Collector",1,340,"2016-05-27T12:26:57-07:00","5",1,"Stimuli/versionCstim.txt","Procedure/versionCproc.txt","Tetris",NA,"TRACK","","TRACK","OFF","Cat_Restudy_L1",305,"Study","No","3","Cat_Restudy_L1","ON","",3000,NA,NA,NA,NA,NA,NA,NA,NA
"A2RAC1CU8YLGPC","Collector",1,341,"2016-05-27T12:27:02-07:00","5",1,"Stimuli/versionCstim.txt","Procedure/versionCproc.txt","Tetris",NA,"PING-PONG","","PING-PONG","OFF","Cat_Restudy_L1",314,"Study","No","3","Cat_Restudy_L1","ON","",3000,NA,NA,NA,NA,NA,NA,NA,NA
"A2RAC1CU8YLGPC","Collector",1,342,"2016-05-27T12:27:07-07:00","5",1,"Stimuli/versionCstim.txt","Procedure/versionCproc.txt","Tetris",NA,"GYMNASTICS","","GYMNASTICS","OFF","Cat_Restudy_L1",320,"Study","No","3","Cat_Restudy_L1","ON","",3000,NA,NA,NA,NA,NA,NA,NA,NA
"A2RAC1CU8YLGPC","Collector",1,343,"2016-05-27T12:27:42-07:00","35",1,"Stimuli/versionCstim.txt","Procedure/versionCproc.txt","Tetris",NA,"n/a","n/a","n/a","n/a","n/a",0,"Instruct","N/A","User","Restudy Instructions: You will now view this list again, but in a different order. Click the button below to begin.","OFF","",33440,NA,NA,NA,NA,NA,NA,NA,NA
"A2RAC1CU8YLGPC","Collector",1,344,"2016-05-27T12:27:48-07:00","6",1,"Stimuli/versionCstim.txt","Procedure/versionCproc.txt","Tetris",NA,"SOCCER","","SOCCER","OFF","Cat_Restudy_L1",322,"Study","No","3","Cat_Restudy_L1","ON","",3000,NA,NA,NA,NA,NA,NA,NA,NA
"A2RAC1CU8YLGPC","Collector",1,345,"2016-05-27T12:27:54-07:00","6",1,"Stimuli/versionCstim.txt","Procedure/versionCproc.txt","Tetris",NA,"SOFTBALL","","SOFTBALL","OFF","Cat_Restudy_L1",335,"Study","No","3","Cat_Restudy_L1","ON","",3000,NA,NA,NA,NA,NA,NA,NA,NA
"A2RAC1CU8YLGPC","Collector",1,346,"2016-05-27T12:27:59-07:00","5",1,"Stimuli/versionCstim.txt","Procedure/versionCproc.txt","Tetris",NA,"GYMNASTICS","","GYMNASTICS","OFF","Cat_Restudy_L1",340,"Study","No","3","Cat_Restudy_L1","ON","",3000,NA,NA,NA,NA,NA,NA,NA,NA
"A2RAC1CU8YLGPC","Collector",1,347,"2016-05-27T12:28:05-07:00","6",1,"Stimuli/versionCstim.txt","Procedure/versionCproc.txt","Tetris",NA,"RACING","","RACING","OFF","Cat_Restudy_L1",341,"Study","No","3","Cat_Restudy_L1","ON","",3000,NA,NA,NA,NA,NA,NA,NA,NA
"A2RAC1CU8YLGPC","Collector",1,348,"2016-05-27T12:28:10-07:00","5",1,"Stimuli/versionCstim.txt","Procedure/versionCproc.txt","Tetris",NA,"ARCHERY","","ARCHERY","OFF","Cat_Restudy_L1",331,"Study","No","3","Cat_Restudy_L1","ON","",3000,NA,NA,NA,NA,NA,NA,NA,NA
"A2RAC1CU8YLGPC","Collector",1,349,"2016-05-27T12:28:15-07:00","5",1,"Stimuli/versionCstim.txt","Procedure/versionCproc.txt","Tetris",NA,"BADMINTON","","BADMINTON","OFF","Cat_Restudy_L1",327,"Study","No","3","Cat_Restudy_L1","ON","",3000,NA,NA,NA,NA,NA,NA,NA,NA
"A2RAC1CU8YLGPC","Collector",1,350,"2016-05-27T12:28:19-07:00","4",1,"Stimuli/versionCstim.txt","Procedure/versionCproc.txt","Tetris",NA,"VOLLEYBALL","","VOLLEYBALL","OFF","Cat_Restudy_L1",330,"Study","No","3","Cat_Restudy_L1","ON","",3000,NA,NA,NA,NA,NA,NA,NA,NA
"A2RAC1CU8YLGPC","Collector",1,351,"2016-05-27T12:28:24-07:00","5",1,"Stimuli/versionCstim.txt","Procedure/versionCproc.txt","Tetris",NA,"LACROSSE","","LACROSSE","OFF","Cat_Restudy_L1",326,"Study","No","3","Cat_Restudy_L1","ON","",3000,NA,NA,NA,NA,NA,NA,NA,NA
"A2RAC1CU8YLGPC","Collector",1,352,"2016-05-27T12:28:29-07:00","5",1,"Stimuli/versionCstim.txt","Procedure/versionCproc.txt","Tetris",NA,"BOWLING","","BOWLING","OFF","Cat_Restudy_L1",328,"Study","No","3","Cat_Restudy_L1","ON","",3000,NA,NA,NA,NA,NA,NA,NA,NA
"A2RAC1CU8YLGPC","Collector",1,353,"2016-05-27T12:28:34-07:00","5",1,"Stimuli/versionCstim.txt","Procedure/versionCproc.txt","Tetris",NA,"PING-PONG","","PING-PONG","OFF","Cat_Restudy_L1",334,"Study","No","3","Cat_Restudy_L1","ON","",3000,NA,NA,NA,NA,NA,NA,NA,NA
"A2RAC1CU8YLGPC","Collector",1,354,"2016-05-27T12:28:39-07:00","5",1,"Stimuli/versionCstim.txt","Procedure/versionCproc.txt","Tetris",NA,"WRESTLING","","WRESTLING","OFF","Cat_Restudy_L1",329,"Study","No","3","Cat_Restudy_L1","ON","",3000,NA,NA,NA,NA,NA,NA,NA,NA
"A2RAC1CU8YLGPC","Collector",1,355,"2016-05-27T12:28:45-07:00","6",1,"Stimuli/versionCstim.txt","Procedure/versionCproc.txt","Tetris",NA,"FISHING","","FISHING","OFF","Cat_Restudy_L1",336,"Study","No","3","Cat_Restudy_L1","ON","",3000,NA,NA,NA,NA,NA,NA,NA,NA
"A2RAC1CU8YLGPC","Collector",1,356,"2016-05-27T12:28:50-07:00","5",1,"Stimuli/versionCstim.txt","Procedure/versionCproc.txt","Tetris",NA,"RUGBY","","RUGBY","OFF","Cat_Restudy_L1",339,"Study","No","3","Cat_Restudy_L1","ON","",3000,NA,NA,NA,NA,NA,NA,NA,NA
"A2RAC1CU8YLGPC","Collector",1,357,"2016-05-27T12:28:55-07:00","5",1,"Stimuli/versionCstim.txt","Procedure/versionCproc.txt","Tetris",NA,"TRACK","","TRACK","OFF","Cat_Restudy_L1",325,"Study","No","3","Cat_Restudy_L1","ON","",3000,NA,NA,NA,NA,NA,NA,NA,NA
"A2RAC1CU8YLGPC","Collector",1,358,"2016-05-27T12:29:00-07:00","5",1,"Stimuli/versionCstim.txt","Procedure/versionCproc.txt","Tetris",NA,"FENCING","","FENCING","OFF","Cat_Restudy_L1",333,"Study","No","3","Cat_Restudy_L1","ON","",3000,NA,NA,NA,NA,NA,NA,NA,NA
"A2RAC1CU8YLGPC","Collector",1,359,"2016-05-27T12:29:05-07:00","5",1,"Stimuli/versionCstim.txt","Procedure/versionCproc.txt","Tetris",NA,"POLO","","POLO","OFF","Cat_Restudy_L1",337,"Study","No","3","Cat_Restudy_L1","ON","",3000,NA,NA,NA,NA,NA,NA,NA,NA
"A2RAC1CU8YLGPC","Collector",1,360,"2016-05-27T12:29:10-07:00","5",1,"Stimuli/versionCstim.txt","Procedure/versionCproc.txt","Tetris",NA,"SKIING","","SKIING","OFF","Cat_Restudy_L1",332,"Study","No","3","Cat_Restudy_L1","ON","",3000,NA,NA,NA,NA,NA,NA,NA,NA
"A2RAC1CU8YLGPC","Collector",1,361,"2016-05-27T12:29:15-07:00","5",1,"Stimuli/versionCstim.txt","Procedure/versionCproc.txt","Tetris",NA,"HOCKEY","","HOCKEY","OFF","Cat_Restudy_L1",324,"Study","No","3","Cat_Restudy_L1","ON","",3000,NA,NA,NA,NA,NA,NA,NA,NA
"A2RAC1CU8YLGPC","Collector",1,362,"2016-05-27T12:29:20-07:00","5",1,"Stimuli/versionCstim.txt","Procedure/versionCproc.txt","Tetris",NA,"GOLF","","GOLF","OFF","Cat_Restudy_L1",323,"Study","No","3","Cat_Restudy_L1","ON","",3000,NA,NA,NA,NA,NA,NA,NA,NA
"A2RAC1CU8YLGPC","Collector",1,363,"2016-05-27T12:29:25-07:00","5",1,"Stimuli/versionCstim.txt","Procedure/versionCproc.txt","Tetris",NA,"BOXING","","BOXING","OFF","Cat_Restudy_L1",338,"Study","No","3","Cat_Restudy_L1","ON","",3000,NA,NA,NA,NA,NA,NA,NA,NA
"A2RAC1CU8YLGPC","Collector",1,364,"2016-05-27T12:29:36-07:00","11",1,"Stimuli/versionCstim.txt","Procedure/versionCproc.txt","Tetris",NA,"n/a","n/a","n/a","n/a","n/a",0,"Instruct","N/A","User","Click the button below for a new list.","OFF","",8310,NA,NA,NA,NA,NA,NA,NA,NA
"A2RAC1CU8YLGPC","Collector",1,365,"2016-05-27T12:29:41-07:00","5",1,"Stimuli/versionCstim.txt","Procedure/versionCproc.txt","Tetris",NA,"FORK","","FORK","OFF","AdHoc_Restudy_L2",353,"Study","No","3","AdHoc_Restudy_L2","ON","",3000,NA,NA,NA,NA,NA,NA,NA,NA
"A2RAC1CU8YLGPC","Collector",1,366,"2016-05-27T12:29:46-07:00","5",1,"Stimuli/versionCstim.txt","Procedure/versionCproc.txt","Tetris",NA,"MIXER","","MIXER","OFF","AdHoc_Restudy_L2",357,"Study","No","3","AdHoc_Restudy_L2","ON","",3000,NA,NA,NA,NA,NA,NA,NA,NA
"A2RAC1CU8YLGPC","Collector",1,367,"2016-05-27T12:29:51-07:00","5",1,"Stimuli/versionCstim.txt","Procedure/versionCproc.txt","Tetris",NA,"FREEZER","","FREEZER","OFF","AdHoc_Restudy_L2",342,"Study","No","3","AdHoc_Restudy_L2","ON","",3000,NA,NA,NA,NA,NA,NA,NA,NA
"A2RAC1CU8YLGPC","Collector",1,368,"2016-05-27T12:29:56-07:00","5",1,"Stimuli/versionCstim.txt","Procedure/versionCproc.txt","Tetris",NA,"KETTLE","","KETTLE","OFF","AdHoc_Restudy_L2",344,"Study","No","3","AdHoc_Restudy_L2","ON","",3000,NA,NA,NA,NA,NA,NA,NA,NA
"A2RAC1CU8YLGPC","Collector",1,369,"2016-05-27T12:30:01-07:00","5",1,"Stimuli/versionCstim.txt","Procedure/versionCproc.txt","Tetris",NA,"KNIFE","","KNIFE","OFF","AdHoc_Restudy_L2",343,"Study","No","3","AdHoc_Restudy_L2","ON","",3000,NA,NA,NA,NA,NA,NA,NA,NA
"A2RAC1CU8YLGPC","Collector",1,370,"2016-05-27T12:30:06-07:00","5",1,"Stimuli/versionCstim.txt","Procedure/versionCproc.txt","Tetris",NA,"SPICE RACK","","SPICE RACK","OFF","AdHoc_Restudy_L2",360,"Study","No","3","AdHoc_Restudy_L2","ON","",3000,NA,NA,NA,NA,NA,NA,NA,NA
"A2RAC1CU8YLGPC","Collector",1,371,"2016-05-27T12:30:11-07:00","5",1,"Stimuli/versionCstim.txt","Procedure/versionCproc.txt","Tetris",NA,"MUG","","MUG","OFF","AdHoc_Restudy_L2",350,"Study","No","3","AdHoc_Restudy_L2","ON","",3000,NA,NA,NA,NA,NA,NA,NA,NA
"A2RAC1CU8YLGPC","Collector",1,372,"2016-05-27T12:30:17-07:00","6",1,"Stimuli/versionCstim.txt","Procedure/versionCproc.txt","Tetris",NA,"BOWL","","BOWL","OFF","AdHoc_Restudy_L2",347,"Study","No","3","AdHoc_Restudy_L2","ON","",3000,NA,NA,NA,NA,NA,NA,NA,NA
"A2RAC1CU8YLGPC","Collector",1,373,"2016-05-27T12:30:22-07:00","5",1,"Stimuli/versionCstim.txt","Procedure/versionCproc.txt","Tetris",NA,"PLATTER","","PLATTER","OFF","AdHoc_Restudy_L2",345,"Study","No","3","AdHoc_Restudy_L2","ON","",3000,NA,NA,NA,NA,NA,NA,NA,NA
