"X.Username","X.ExperimentName","X.Session","X.Trial","X.Date","X.TimeDif","X.Condition.Number","X.Stimuli.File","X.Order.File","X.Condition.Description","X.Condition.Notes","Stimuli.Target","Stimuli.Cue","Stimuli.Answer","Stimuli.Shuffle","Stimuli.Stimuli.Notes","Procedure.Item","Procedure.Trial.Type","Procedure.Post.Trial","Procedure.Timing","Procedure.Procedure.Notes","Procedure.Shuffle","Response.Response1","Response.RT","Response.RTkey","Response.RTlast","Response.strictAcc","Response.lenientAcc","Response.Accuracy","Response.JOL","Response.postRT","Response.postRTkey"
"AD4ALUT6LXXBU","Collector",1,1,"2016-06-06T16:15:55-07:00","-",2,"Stimuli/versionBstim.txt","Procedure/versionBproc.txt","Tetris",NA,"n/a","n/a","n/a","n/a","n/a",0,"Instruct","N/A","User","Click the button below for the first list.","Off","",3950,NA,NA,NA,NA,NA,NA,NA,NA
"AD4ALUT6LXXBU","Collector",1,2,"2016-06-06T16:16:00-07:00","5",2,"Stimuli/versionBstim.txt","Procedure/versionBproc.txt","Tetris",NA,"BEER","","BEER","OFF","AdHoc_G_L1",8,"Study","No","3","AdHoc_G_L1","ON","",3000,NA,NA,NA,NA,NA,NA,NA,NA
"AD4ALUT6LXXBU","Collector",1,3,"2016-06-06T16:16:05-07:00","5",2,"Stimuli/versionBstim.txt","Procedure/versionBproc.txt","Tetris",NA,"CIDER","","CIDER","OFF","AdHoc_G_L1",2,"Study","No","3","AdHoc_G_L1","ON","",3000,NA,NA,NA,NA,NA,NA,NA,NA
"AD4ALUT6LXXBU","Collector",1,4,"2016-06-06T16:16:10-07:00","5",2,"Stimuli/versionBstim.txt","Procedure/versionBproc.txt","Tetris",NA,"SODA","","SODA","OFF","AdHoc_G_L1",3,"Study","No","3","AdHoc_G_L1","ON","",3000,NA,NA,NA,NA,NA,NA,NA,NA
"AD4ALUT6LXXBU","Collector",1,5,"2016-06-06T16:16:15-07:00","5",2,"Stimuli/versionBstim.txt","Procedure/versionBproc.txt","Tetris",NA,"GASOLINE","","GASOLINE","OFF","AdHoc_G_L1",17,"Study","No","3","AdHoc_G_L1","ON","",3000,NA,NA,NA,NA,NA,NA,NA,NA
"AD4ALUT6LXXBU","Collector",1,6,"2016-06-06T16:16:20-07:00","5",2,"Stimuli/versionBstim.txt","Procedure/versionBproc.txt","Tetris",NA,"BLOOD","","BLOOD","OFF","AdHoc_G_L1",18,"Study","No","3","AdHoc_G_L1","ON","",3000,NA,NA,NA,NA,NA,NA,NA,NA
"AD4ALUT6LXXBU","Collector",1,7,"2016-06-06T16:16:25-07:00","5",2,"Stimuli/versionBstim.txt","Procedure/versionBproc.txt","Tetris",NA,"OCEAN","","OCEAN","OFF","AdHoc_G_L1",12,"Study","No","3","AdHoc_G_L1","ON","",3000,NA,NA,NA,NA,NA,NA,NA,NA
"AD4ALUT6LXXBU","Collector",1,8,"2016-06-06T16:16:31-07:00","6",2,"Stimuli/versionBstim.txt","Procedure/versionBproc.txt","Tetris",NA,"HOT CHOCOLATE","","HOT CHOCOLATE","OFF","AdHoc_G_L1",11,"Study","No","3","AdHoc_G_L1","ON","",3000,NA,NA,NA,NA,NA,NA,NA,NA
"AD4ALUT6LXXBU","Collector",1,9,"2016-06-06T16:16:36-07:00","5",2,"Stimuli/versionBstim.txt","Procedure/versionBproc.txt","Tetris",NA,"SYRUP","","SYRUP","OFF","AdHoc_G_L1",20,"Study","No","3","AdHoc_G_L1","ON","",3000,NA,NA,NA,NA,NA,NA,NA,NA
"AD4ALUT6LXXBU","Collector",1,10,"2016-06-06T16:16:41-07:00","5",2,"Stimuli/versionBstim.txt","Procedure/versionBproc.txt","Tetris",NA,"WINE","","WINE","OFF","AdHoc_G_L1",9,"Study","No","3","AdHoc_G_L1","ON","",3000,NA,NA,NA,NA,NA,NA,NA,NA
"AD4ALUT6LXXBU","Collector",1,11,"2016-06-06T16:16:46-07:00","5",2,"Stimuli/versionBstim.txt","Procedure/versionBproc.txt","Tetris",NA,"TEA","","TEA","OFF","AdHoc_G_L1",4,"Study","No","3","AdHoc_G_L1","ON","",3000,NA,NA,NA,NA,NA,NA,NA,NA
"AD4ALUT6LXXBU","Collector",1,12,"2016-06-06T16:16:50-07:00","4",2,"Stimuli/versionBstim.txt","Procedure/versionBproc.txt","Tetris",NA,"RIVER","","RIVER","OFF","AdHoc_G_L1",14,"Study","No","3","AdHoc_G_L1","ON","",3000,NA,NA,NA,NA,NA,NA,NA,NA
"AD4ALUT6LXXBU","Collector",1,13,"2016-06-06T16:16:56-07:00","6",2,"Stimuli/versionBstim.txt","Procedure/versionBproc.txt","Tetris",NA,"SOUP","","SOUP","OFF","AdHoc_G_L1",16,"Study","No","3","AdHoc_G_L1","ON","",3000,NA,NA,NA,NA,NA,NA,NA,NA
"AD4ALUT6LXXBU","Collector",1,14,"2016-06-06T16:17:01-07:00","5",2,"Stimuli/versionBstim.txt","Procedure/versionBproc.txt","Tetris",NA,"CREAM","","CREAM","OFF","AdHoc_G_L1",21,"Study","No","3","AdHoc_G_L1","ON","",3000,NA,NA,NA,NA,NA,NA,NA,NA
"AD4ALUT6LXXBU","Collector",1,15,"2016-06-06T16:17:06-07:00","5",2,"Stimuli/versionBstim.txt","Procedure/versionBproc.txt","Tetris",NA,"MERCURY","","MERCURY","OFF","AdHoc_G_L1",5,"Study","No","3","AdHoc_G_L1","ON","",3000,NA,NA,NA,NA,NA,NA,NA,NA
"AD4ALUT6LXXBU","Collector",1,16,"2016-06-06T16:17:11-07:00","5",2,"Stimuli/versionBstim.txt","Procedure/versionBproc.txt","Tetris",NA,"LAVA","","LAVA","OFF","AdHoc_G_L1",15,"Study","No","3","AdHoc_G_L1","ON","",3000,NA,NA,NA,NA,NA,NA,NA,NA
"AD4ALUT6LXXBU","Collector",1,17,"2016-06-06T16:17:16-07:00","5",2,"Stimuli/versionBstim.txt","Procedure/versionBproc.txt","Tetris",NA,"SWEAT","","SWEAT","OFF","AdHoc_G_L1",7,"Study","No","3","AdHoc_G_L1","ON","",3000,NA,NA,NA,NA,NA,NA,NA,NA
"AD4ALUT6LXXBU","Collector",1,18,"2016-06-06T16:17:21-07:00","5",2,"Stimuli/versionBstim.txt","Procedure/versionBproc.txt","Tetris",NA,"ALCOHOL","","ALCOHOL","OFF","AdHoc_G_L1",10,"Study","No","3","AdHoc_G_L1","ON","",3000,NA,NA,NA,NA,NA,NA,NA,NA
"AD4ALUT6LXXBU","Collector",1,19,"2016-06-06T16:17:26-07:00","5",2,"Stimuli/versionBstim.txt","Procedure/versionBproc.txt","Tetris",NA,"VINEGAR","","VINEGAR","OFF","AdHoc_G_L1",19,"Study","No","3","AdHoc_G_L1","ON","",3000,NA,NA,NA,NA,NA,NA,NA,NA
"AD4ALUT6LXXBU","Collector",1,20,"2016-06-06T16:17:31-07:00","5",2,"Stimuli/versionBstim.txt","Procedure/versionBproc.txt","Tetris",NA,"LAKE","","LAKE","OFF","AdHoc_G_L1",13,"Study","No","3","AdHoc_G_L1","ON","",3000,NA,NA,NA,NA,NA,NA,NA,NA
"AD4ALUT6LXXBU","Collector",1,21,"2016-06-06T16:17:36-07:00","5",2,"Stimuli/versionBstim.txt","Procedure/versionBproc.txt","Tetris",NA,"TEARS","","TEARS","OFF","AdHoc_G_L1",6,"Study","No","3","AdHoc_G_L1","ON","",3000,NA,NA,NA,NA,NA,NA,NA,NA
"AD4ALUT6LXXBU","Collector",1,22,"2016-06-06T16:18:02-07:00","26",2,"Stimuli/versionBstim.txt","Procedure/versionBproc.txt","Tetris",NA,"n/a","n/a","n/a","n/a","n/a",0,"Instruct","N/A","User","Guess Instructions: 5 words related to the list you just saw were not presented. Try to guess these words by typing them into the dialog box on the next screen. You must guess at least one.","OFF","",24320,NA,NA,NA,NA,NA,NA,NA,NA
"AD4ALUT6LXXBU","Collector",1,23,"2016-06-06T16:18:48-07:00","46",2,"Stimuli/versionBstim.txt","Procedure/versionBproc.txt","Tetris",NA,"n/a","n/a","n/a","n/a","n/a",0,"freerecall","N/A","User","Guess Below. You must make at least one guess. Click submit when you are finished.","OFF","Champagne <br />  <br /> Stream <br />  <br /> Rum",43750,4610,41580,NA,NA,NA,NA,NA,NA
"AD4ALUT6LXXBU","Collector",1,24,"2016-06-06T16:18:53-07:00","5",2,"Stimuli/versionBstim.txt","Procedure/versionBproc.txt","Tetris",NA,"n/a","n/a","n/a","n/a","n/a",0,"Instruct","N/A","User","Click the button below for the next list.","OFF","",2830,NA,NA,NA,NA,NA,NA,NA,NA
"AD4ALUT6LXXBU","Collector",1,25,"2016-06-06T16:18:58-07:00","5",2,"Stimuli/versionBstim.txt","Procedure/versionBproc.txt","Tetris",NA,"LIMA BEANS","","LIMA BEANS","OFF","Cat_G_L2",31,"Study","No","3","Cat_G_L2","ON","",3000,NA,NA,NA,NA,NA,NA,NA,NA
"AD4ALUT6LXXBU","Collector",1,26,"2016-06-06T16:19:03-07:00","5",2,"Stimuli/versionBstim.txt","Procedure/versionBproc.txt","Tetris",NA,"KALE","","KALE","OFF","Cat_G_L2",36,"Study","No","3","Cat_G_L2","ON","",3000,NA,NA,NA,NA,NA,NA,NA,NA
"AD4ALUT6LXXBU","Collector",1,27,"2016-06-06T16:19:08-07:00","5",2,"Stimuli/versionBstim.txt","Procedure/versionBproc.txt","Tetris",NA,"EGGPLANT","","EGGPLANT","OFF","Cat_G_L2",41,"Study","No","3","Cat_G_L2","ON","",3000,NA,NA,NA,NA,NA,NA,NA,NA
"AD4ALUT6LXXBU","Collector",1,28,"2016-06-06T16:19:13-07:00","5",2,"Stimuli/versionBstim.txt","Procedure/versionBproc.txt","Tetris",NA,"RADISH","","RADISH","OFF","Cat_G_L2",34,"Study","No","3","Cat_G_L2","ON","",3000,NA,NA,NA,NA,NA,NA,NA,NA
"AD4ALUT6LXXBU","Collector",1,29,"2016-06-06T16:19:17-07:00","4",2,"Stimuli/versionBstim.txt","Procedure/versionBproc.txt","Tetris",NA,"TURNIP","","TURNIP","OFF","Cat_G_L2",35,"Study","No","3","Cat_G_L2","ON","",3000,NA,NA,NA,NA,NA,NA,NA,NA
"AD4ALUT6LXXBU","Collector",1,30,"2016-06-06T16:19:22-07:00","5",2,"Stimuli/versionBstim.txt","Procedure/versionBproc.txt","Tetris",NA,"ASPARAGUS","","ASPARAGUS","OFF","Cat_G_L2",25,"Study","No","3","Cat_G_L2","ON","",3000,NA,NA,NA,NA,NA,NA,NA,NA
"AD4ALUT6LXXBU","Collector",1,31,"2016-06-06T16:19:27-07:00","5",2,"Stimuli/versionBstim.txt","Procedure/versionBproc.txt","Tetris",NA,"POTATO","","POTATO","OFF","Cat_G_L2",23,"Study","No","3","Cat_G_L2","ON","",3000,NA,NA,NA,NA,NA,NA,NA,NA
"AD4ALUT6LXXBU","Collector",1,32,"2016-06-06T16:19:32-07:00","5",2,"Stimuli/versionBstim.txt","Procedure/versionBproc.txt","Tetris",NA,"BEETS","","BEETS","OFF","Cat_G_L2",30,"Study","No","3","Cat_G_L2","ON","",3000,NA,NA,NA,NA,NA,NA,NA,NA
"AD4ALUT6LXXBU","Collector",1,33,"2016-06-06T16:19:37-07:00","5",2,"Stimuli/versionBstim.txt","Procedure/versionBproc.txt","Tetris",NA,"SQUASH","","SQUASH","OFF","Cat_G_L2",32,"Study","No","3","Cat_G_L2","ON","",3000,NA,NA,NA,NA,NA,NA,NA,NA
"AD4ALUT6LXXBU","Collector",1,34,"2016-06-06T16:19:42-07:00","5",2,"Stimuli/versionBstim.txt","Procedure/versionBproc.txt","Tetris",NA,"PEPPERS","","PEPPERS","OFF","Cat_G_L2",37,"Study","No","3","Cat_G_L2","ON","",3000,NA,NA,NA,NA,NA,NA,NA,NA
"AD4ALUT6LXXBU","Collector",1,35,"2016-06-06T16:19:47-07:00","5",2,"Stimuli/versionBstim.txt","Procedure/versionBproc.txt","Tetris",NA,"OKRA","","OKRA","OFF","Cat_G_L2",40,"Study","No","3","Cat_G_L2","ON","",3000,NA,NA,NA,NA,NA,NA,NA,NA
"AD4ALUT6LXXBU","Collector",1,36,"2016-06-06T16:19:52-07:00","5",2,"Stimuli/versionBstim.txt","Procedure/versionBproc.txt","Tetris",NA,"PUMPKIN","","PUMPKIN","OFF","Cat_G_L2",39,"Study","No","3","Cat_G_L2","ON","",3000,NA,NA,NA,NA,NA,NA,NA,NA
"AD4ALUT6LXXBU","Collector",1,37,"2016-06-06T16:19:57-07:00","5",2,"Stimuli/versionBstim.txt","Procedure/versionBproc.txt","Tetris",NA,"LETTUCE","","LETTUCE","OFF","Cat_G_L2",24,"Study","No","3","Cat_G_L2","ON","",3000,NA,NA,NA,NA,NA,NA,NA,NA
"AD4ALUT6LXXBU","Collector",1,38,"2016-06-06T16:20:01-07:00","4",2,"Stimuli/versionBstim.txt","Procedure/versionBproc.txt","Tetris",NA,"ONION","","ONION","OFF","Cat_G_L2",33,"Study","No","3","Cat_G_L2","ON","",3000,NA,NA,NA,NA,NA,NA,NA,NA
"AD4ALUT6LXXBU","Collector",1,39,"2016-06-06T16:20:07-07:00","6",2,"Stimuli/versionBstim.txt","Procedure/versionBproc.txt","Tetris",NA,"CAULIFLOWER","","CAULIFLOWER","OFF","Cat_G_L2",29,"Study","No","3","Cat_G_L2","ON","",3000,NA,NA,NA,NA,NA,NA,NA,NA
"AD4ALUT6LXXBU","Collector",1,40,"2016-06-06T16:20:12-07:00","5",2,"Stimuli/versionBstim.txt","Procedure/versionBproc.txt","Tetris",NA,"ZUCCHINI","","ZUCCHINI","OFF","Cat_G_L2",38,"Study","No","3","Cat_G_L2","ON","",3000,NA,NA,NA,NA,NA,NA,NA,NA
"AD4ALUT6LXXBU","Collector",1,41,"2016-06-06T16:20:16-07:00","4",2,"Stimuli/versionBstim.txt","Procedure/versionBproc.txt","Tetris",NA,"CABBAGE","","CABBAGE","OFF","Cat_G_L2",27,"Study","No","3","Cat_G_L2","ON","",3000,NA,NA,NA,NA,NA,NA,NA,NA
"AD4ALUT6LXXBU","Collector",1,42,"2016-06-06T16:20:21-07:00","5",2,"Stimuli/versionBstim.txt","Procedure/versionBproc.txt","Tetris",NA,"CORN","","CORN","OFF","Cat_G_L2",22,"Study","No","3","Cat_G_L2","ON","",3000,NA,NA,NA,NA,NA,NA,NA,NA
"AD4ALUT6LXXBU","Collector",1,43,"2016-06-06T16:20:26-07:00","5",2,"Stimuli/versionBstim.txt","Procedure/versionBproc.txt","Tetris",NA,"CELERY","","CELERY","OFF","Cat_G_L2",26,"Study","No","3","Cat_G_L2","ON","",3000,NA,NA,NA,NA,NA,NA,NA,NA
"AD4ALUT6LXXBU","Collector",1,44,"2016-06-06T16:20:31-07:00","5",2,"Stimuli/versionBstim.txt","Procedure/versionBproc.txt","Tetris",NA,"STRING BEANS","","STRING BEANS","OFF","Cat_G_L2",28,"Study","No","3","Cat_G_L2","ON","",3000,NA,NA,NA,NA,NA,NA,NA,NA
"AD4ALUT6LXXBU","Collector",1,45,"2016-06-06T16:20:43-07:00","12",2,"Stimuli/versionBstim.txt","Procedure/versionBproc.txt","Tetris",NA,"n/a","n/a","n/a","n/a","n/a",0,"Instruct","N/A","User","Guess Instructions: 5 words related to the list you just saw were not presented. Try to guess these words by typing them into the dialog box on the next screen. You must guess at least one.","OFF","",9890,NA,NA,NA,NA,NA,NA,NA,NA
"AD4ALUT6LXXBU","Collector",1,46,"2016-06-06T16:21:45-07:00","62",2,"Stimuli/versionBstim.txt","Procedure/versionBproc.txt","Tetris",NA,"n/a","n/a","n/a","n/a","n/a",0,"freerecall","N/A","User","Guess Below. You must make at least one guess. Click submit when you are finished.","OFF","Carrots <br />  <br /> Kidney beans <br />  <br /> Spinach <br />  <br /> Peas",59480,10630,54800,NA,NA,NA,NA,NA,NA
"AD4ALUT6LXXBU","Collector",1,47,"2016-06-06T16:21:50-07:00","5",2,"Stimuli/versionBstim.txt","Procedure/versionBproc.txt","Tetris",NA,"n/a","n/a","n/a","n/a","n/a",0,"Instruct","N/A","User","Click the button below for the next list.","OFF","",2580,NA,NA,NA,NA,NA,NA,NA,NA
"AD4ALUT6LXXBU","Collector",1,48,"2016-06-06T16:21:55-07:00","5",2,"Stimuli/versionBstim.txt","Procedure/versionBproc.txt","Tetris",NA,"REPTILE","","REPTILE","OFF","Unrel_G_L3",61,"Study","No","3","Unrel_G_L3","ON","",3000,NA,NA,NA,NA,NA,NA,NA,NA
"AD4ALUT6LXXBU","Collector",1,49,"2016-06-06T16:22:01-07:00","6",2,"Stimuli/versionBstim.txt","Procedure/versionBproc.txt","Tetris",NA,"SPIKE","","SPIKE","OFF","Unrel_G_L3",47,"Study","No","3","Unrel_G_L3","ON","",3000,NA,NA,NA,NA,NA,NA,NA,NA
"AD4ALUT6LXXBU","Collector",1,50,"2016-06-06T16:22:05-07:00","4",2,"Stimuli/versionBstim.txt","Procedure/versionBproc.txt","Tetris",NA,"GHOUL","","GHOUL","OFF","Unrel_G_L3",45,"Study","No","3","Unrel_G_L3","ON","",3000,NA,NA,NA,NA,NA,NA,NA,NA
"AD4ALUT6LXXBU","Collector",1,51,"2016-06-06T16:22:10-07:00","5",2,"Stimuli/versionBstim.txt","Procedure/versionBproc.txt","Tetris",NA,"PAPERCLIP","","PAPERCLIP","OFF","Unrel_G_L3",57,"Study","No","3","Unrel_G_L3","ON","",3000,NA,NA,NA,NA,NA,NA,NA,NA
"AD4ALUT6LXXBU","Collector",1,52,"2016-06-06T16:22:15-07:00","5",2,"Stimuli/versionBstim.txt","Procedure/versionBproc.txt","Tetris",NA,"DOME","","DOME","OFF","Unrel_G_L3",49,"Study","No","3","Unrel_G_L3","ON","",3000,NA,NA,NA,NA,NA,NA,NA,NA
"AD4ALUT6LXXBU","Collector",1,53,"2016-06-06T16:22:20-07:00","5",2,"Stimuli/versionBstim.txt","Procedure/versionBproc.txt","Tetris",NA,"NOODLE","","NOODLE","OFF","Unrel_G_L3",48,"Study","No","3","Unrel_G_L3","ON","",3000,NA,NA,NA,NA,NA,NA,NA,NA
"AD4ALUT6LXXBU","Collector",1,54,"2016-06-06T16:22:25-07:00","5",2,"Stimuli/versionBstim.txt","Procedure/versionBproc.txt","Tetris",NA,"TEE","","TEE","OFF","Unrel_G_L3",43,"Study","No","3","Unrel_G_L3","ON","",3000,NA,NA,NA,NA,NA,NA,NA,NA
"AD4ALUT6LXXBU","Collector",1,55,"2016-06-06T16:22:30-07:00","5",2,"Stimuli/versionBstim.txt","Procedure/versionBproc.txt","Tetris",NA,"MOISTURE","","MOISTURE","OFF","Unrel_G_L3",60,"Study","No","3","Unrel_G_L3","ON","",3000,NA,NA,NA,NA,NA,NA,NA,NA
"AD4ALUT6LXXBU","Collector",1,56,"2016-06-06T16:22:34-07:00","4",2,"Stimuli/versionBstim.txt","Procedure/versionBproc.txt","Tetris",NA,"MOOSE","","MOOSE","OFF","Unrel_G_L3",52,"Study","No","3","Unrel_G_L3","ON","",3000,NA,NA,NA,NA,NA,NA,NA,NA
"AD4ALUT6LXXBU","Collector",1,57,"2016-06-06T16:22:41-07:00","7",2,"Stimuli/versionBstim.txt","Procedure/versionBproc.txt","Tetris",NA,"SCOUT","","SCOUT","OFF","Unrel_G_L3",51,"Study","No","3","Unrel_G_L3","ON","",3000,NA,NA,NA,NA,NA,NA,NA,NA
"AD4ALUT6LXXBU","Collector",1,58,"2016-06-06T16:22:46-07:00","5",2,"Stimuli/versionBstim.txt","Procedure/versionBproc.txt","Tetris",NA,"INCENSE","","INCENSE","OFF","Unrel_G_L3",59,"Study","No","3","Unrel_G_L3","ON","",3000,NA,NA,NA,NA,NA,NA,NA,NA
"AD4ALUT6LXXBU","Collector",1,59,"2016-06-06T16:22:51-07:00","5",2,"Stimuli/versionBstim.txt","Procedure/versionBproc.txt","Tetris",NA,"YARD","","YARD","OFF","Unrel_G_L3",53,"Study","No","3","Unrel_G_L3","ON","",3000,NA,NA,NA,NA,NA,NA,NA,NA
"AD4ALUT6LXXBU","Collector",1,60,"2016-06-06T16:22:56-07:00","5",2,"Stimuli/versionBstim.txt","Procedure/versionBproc.txt","Tetris",NA,"CANISTER","","CANISTER","OFF","Unrel_G_L3",55,"Study","No","3","Unrel_G_L3","ON","",3000,NA,NA,NA,NA,NA,NA,NA,NA
"AD4ALUT6LXXBU","Collector",1,61,"2016-06-06T16:23:02-07:00","6",2,"Stimuli/versionBstim.txt","Procedure/versionBproc.txt","Tetris",NA,"FANG","","FANG","OFF","Unrel_G_L3",46,"Study","No","3","Unrel_G_L3","ON","",3000,NA,NA,NA,NA,NA,NA,NA,NA
"AD4ALUT6LXXBU","Collector",1,62,"2016-06-06T16:23:06-07:00","4",2,"Stimuli/versionBstim.txt","Procedure/versionBproc.txt","Tetris",NA,"FOG","","FOG","OFF","Unrel_G_L3",44,"Study","No","3","Unrel_G_L3","ON","",3000,NA,NA,NA,NA,NA,NA,NA,NA
"AD4ALUT6LXXBU","Collector",1,63,"2016-06-06T16:23:11-07:00","5",2,"Stimuli/versionBstim.txt","Procedure/versionBproc.txt","Tetris",NA,"RANCH","","RANCH","OFF","Unrel_G_L3",50,"Study","No","3","Unrel_G_L3","ON","",3000,NA,NA,NA,NA,NA,NA,NA,NA
"AD4ALUT6LXXBU","Collector",1,64,"2016-06-06T16:23:16-07:00","5",2,"Stimuli/versionBstim.txt","Procedure/versionBproc.txt","Tetris",NA,"RAMP","","RAMP","OFF","Unrel_G_L3",42,"Study","No","3","Unrel_G_L3","ON","",3000,NA,NA,NA,NA,NA,NA,NA,NA
"AD4ALUT6LXXBU","Collector",1,65,"2016-06-06T16:23:21-07:00","5",2,"Stimuli/versionBstim.txt","Procedure/versionBproc.txt","Tetris",NA,"ZOO","","ZOO","OFF","Unrel_G_L3",56,"Study","No","3","Unrel_G_L3","ON","",3000,NA,NA,NA,NA,NA,NA,NA,NA
"AD4ALUT6LXXBU","Collector",1,66,"2016-06-06T16:23:26-07:00","5",2,"Stimuli/versionBstim.txt","Procedure/versionBproc.txt","Tetris",NA,"GOAL","","GOAL","OFF","Unrel_G_L3",54,"Study","No","3","Unrel_G_L3","ON","",3000,NA,NA,NA,NA,NA,NA,NA,NA
"AD4ALUT6LXXBU","Collector",1,67,"2016-06-06T16:23:31-07:00","5",2,"Stimuli/versionBstim.txt","Procedure/versionBproc.txt","Tetris",NA,"THERMOMETER","","THERMOMETER","OFF","Unrel_G_L3",58,"Study","No","3","Unrel_G_L3","ON","",3000,NA,NA,NA,NA,NA,NA,NA,NA
"AD4ALUT6LXXBU","Collector",1,68,"2016-06-06T16:23:53-07:00","22",2,"Stimuli/versionBstim.txt","Procedure/versionBproc.txt","Tetris",NA,"n/a","n/a","n/a","n/a","n/a",0,"Instruct","N/A","User","Guess Instructions: 5 words related to the list you just saw were not presented. Try to guess these words by typing them into the dialog box on the next screen. You must guess at least one.","OFF","",20360,NA,NA,NA,NA,NA,NA,NA,NA
"AD4ALUT6LXXBU","Collector",1,69,"2016-06-06T16:24:29-07:00","36",2,"Stimuli/versionBstim.txt","Procedure/versionBproc.txt","Tetris",NA,"n/a","n/a","n/a","n/a","n/a",0,"freerecall","N/A","User","Guess Below. You must make at least one guess. Click submit when you are finished.","OFF","Rain <br />  <br /> Snake <br />  <br /> Teeth <br />  <br /> Ghost",33310,4610,31410,NA,NA,NA,NA,NA,NA
"AD4ALUT6LXXBU","Collector",1,70,"2016-06-06T16:24:33-07:00","4",2,"Stimuli/versionBstim.txt","Procedure/versionBproc.txt","Tetris",NA,"n/a","n/a","n/a","n/a","n/a",0,"Instruct","N/A","User","Click the button below for the next list.","OFF","",1730,NA,NA,NA,NA,NA,NA,NA,NA
"AD4ALUT6LXXBU","Collector",1,71,"2016-06-06T16:24:38-07:00","5",2,"Stimuli/versionBstim.txt","Procedure/versionBproc.txt","Tetris",NA,"RAINBOW","","RAINBOW","OFF","Unrel_G_L4",65,"Study","No","3","Unrel_G_L4","ON","",3000,NA,NA,NA,NA,NA,NA,NA,NA
"AD4ALUT6LXXBU","Collector",1,72,"2016-06-06T16:24:43-07:00","5",2,"Stimuli/versionBstim.txt","Procedure/versionBproc.txt","Tetris",NA,"CAMERA","","CAMERA","OFF","Unrel_G_L4",70,"Study","No","3","Unrel_G_L4","ON","",3000,NA,NA,NA,NA,NA,NA,NA,NA
"AD4ALUT6LXXBU","Collector",1,73,"2016-06-06T16:24:48-07:00","5",2,"Stimuli/versionBstim.txt","Procedure/versionBproc.txt","Tetris",NA,"TALK","","TALK","OFF","Unrel_G_L4",80,"Study","No","3","Unrel_G_L4","ON","",3000,NA,NA,NA,NA,NA,NA,NA,NA
"AD4ALUT6LXXBU","Collector",1,74,"2016-06-06T16:24:53-07:00","5",2,"Stimuli/versionBstim.txt","Procedure/versionBproc.txt","Tetris",NA,"WHIP","","WHIP","OFF","Unrel_G_L4",79,"Study","No","3","Unrel_G_L4","ON","",3000,NA,NA,NA,NA,NA,NA,NA,NA
"AD4ALUT6LXXBU","Collector",1,75,"2016-06-06T16:24:58-07:00","5",2,"Stimuli/versionBstim.txt","Procedure/versionBproc.txt","Tetris",NA,"SAUCER","","SAUCER","OFF","Unrel_G_L4",66,"Study","No","3","Unrel_G_L4","ON","",3000,NA,NA,NA,NA,NA,NA,NA,NA
"AD4ALUT6LXXBU","Collector",1,76,"2016-06-06T16:25:03-07:00","5",2,"Stimuli/versionBstim.txt","Procedure/versionBproc.txt","Tetris",NA,"BLOUSE","","BLOUSE","OFF","Unrel_G_L4",74,"Study","No","3","Unrel_G_L4","ON","",3000,NA,NA,NA,NA,NA,NA,NA,NA
"AD4ALUT6LXXBU","Collector",1,77,"2016-06-06T16:25:09-07:00","6",2,"Stimuli/versionBstim.txt","Procedure/versionBproc.txt","Tetris",NA,"MALE","","MALE","OFF","Unrel_G_L4",75,"Study","No","3","Unrel_G_L4","ON","",3000,NA,NA,NA,NA,NA,NA,NA,NA
"AD4ALUT6LXXBU","Collector",1,78,"2016-06-06T16:25:14-07:00","5",2,"Stimuli/versionBstim.txt","Procedure/versionBproc.txt","Tetris",NA,"IVORY","","IVORY","OFF","Unrel_G_L4",68,"Study","No","3","Unrel_G_L4","ON","",3000,NA,NA,NA,NA,NA,NA,NA,NA
"AD4ALUT6LXXBU","Collector",1,79,"2016-06-06T16:25:18-07:00","4",2,"Stimuli/versionBstim.txt","Procedure/versionBproc.txt","Tetris",NA,"CREPE","","CREPE","OFF","Unrel_G_L4",71,"Study","No","3","Unrel_G_L4","ON","",3000,NA,NA,NA,NA,NA,NA,NA,NA
"AD4ALUT6LXXBU","Collector",1,80,"2016-06-06T16:25:23-07:00","5",2,"Stimuli/versionBstim.txt","Procedure/versionBproc.txt","Tetris",NA,"PORTRAIT","","PORTRAIT","OFF","Unrel_G_L4",64,"Study","No","3","Unrel_G_L4","ON","",3000,NA,NA,NA,NA,NA,NA,NA,NA
"AD4ALUT6LXXBU","Collector",1,81,"2016-06-06T16:25:28-07:00","5",2,"Stimuli/versionBstim.txt","Procedure/versionBproc.txt","Tetris",NA,"JELLYFISH","","JELLYFISH","OFF","Unrel_G_L4",62,"Study","No","3","Unrel_G_L4","ON","",3000,NA,NA,NA,NA,NA,NA,NA,NA
"AD4ALUT6LXXBU","Collector",1,82,"2016-06-06T16:25:33-07:00","5",2,"Stimuli/versionBstim.txt","Procedure/versionBproc.txt","Tetris",NA,"RACKET","","RACKET","OFF","Unrel_G_L4",76,"Study","No","3","Unrel_G_L4","ON","",3000,NA,NA,NA,NA,NA,NA,NA,NA
"AD4ALUT6LXXBU","Collector",1,83,"2016-06-06T16:25:37-07:00","4",2,"Stimuli/versionBstim.txt","Procedure/versionBproc.txt","Tetris",NA,"AIRPORT","","AIRPORT","OFF","Unrel_G_L4",73,"Study","No","3","Unrel_G_L4","ON","",3000,NA,NA,NA,NA,NA,NA,NA,NA
"AD4ALUT6LXXBU","Collector",1,84,"2016-06-06T16:25:42-07:00","5",2,"Stimuli/versionBstim.txt","Procedure/versionBproc.txt","Tetris",NA,"PUPPY","","PUPPY","OFF","Unrel_G_L4",69,"Study","No","3","Unrel_G_L4","ON","",3000,NA,NA,NA,NA,NA,NA,NA,NA
"AD4ALUT6LXXBU","Collector",1,85,"2016-06-06T16:25:47-07:00","5",2,"Stimuli/versionBstim.txt","Procedure/versionBproc.txt","Tetris",NA,"LEAK","","LEAK","OFF","Unrel_G_L4",72,"Study","No","3","Unrel_G_L4","ON","",3000,NA,NA,NA,NA,NA,NA,NA,NA
"AD4ALUT6LXXBU","Collector",1,86,"2016-06-06T16:25:52-07:00","5",2,"Stimuli/versionBstim.txt","Procedure/versionBproc.txt","Tetris",NA,"ROLL","","ROLL","OFF","Unrel_G_L4",78,"Study","No","3","Unrel_G_L4","ON","",3000,NA,NA,NA,NA,NA,NA,NA,NA
"AD4ALUT6LXXBU","Collector",1,87,"2016-06-06T16:25:57-07:00","5",2,"Stimuli/versionBstim.txt","Procedure/versionBproc.txt","Tetris",NA,"MACHINE","","MACHINE","OFF","Unrel_G_L4",67,"Study","No","3","Unrel_G_L4","ON","",3000,NA,NA,NA,NA,NA,NA,NA,NA
"AD4ALUT6LXXBU","Collector",1,88,"2016-06-06T16:26:02-07:00","5",2,"Stimuli/versionBstim.txt","Procedure/versionBproc.txt","Tetris",NA,"WRECK","","WRECK","OFF","Unrel_G_L4",63,"Study","No","3","Unrel_G_L4","ON","",3000,NA,NA,NA,NA,NA,NA,NA,NA
"AD4ALUT6LXXBU","Collector",1,89,"2016-06-06T16:26:07-07:00","5",2,"Stimuli/versionBstim.txt","Procedure/versionBproc.txt","Tetris",NA,"FIRE","","FIRE","OFF","Unrel_G_L4",81,"Study","No","3","Unrel_G_L4","ON","",3000,NA,NA,NA,NA,NA,NA,NA,NA
"AD4ALUT6LXXBU","Collector",1,90,"2016-06-06T16:26:12-07:00","5",2,"Stimuli/versionBstim.txt","Procedure/versionBproc.txt","Tetris",NA,"RUT","","RUT","OFF","Unrel_G_L4",77,"Study","No","3","Unrel_G_L4","ON","",3000,NA,NA,NA,NA,NA,NA,NA,NA
"AD4ALUT6LXXBU","Collector",1,91,"2016-06-06T16:26:30-07:00","18",2,"Stimuli/versionBstim.txt","Procedure/versionBproc.txt","Tetris",NA,"n/a","n/a","n/a","n/a","n/a",0,"Instruct","N/A","User","Guess Instructions: 5 words related to the list you just saw were not presented. Try to guess these words by typing them into the dialog box on the next screen. You must guess at least one.","OFF","",16220,NA,NA,NA,NA,NA,NA,NA,NA
"AD4ALUT6LXXBU","Collector",1,92,"2016-06-06T16:28:18-07:00","108",2,"Stimuli/versionBstim.txt","Procedure/versionBproc.txt","Tetris",NA,"n/a","n/a","n/a","n/a","n/a",0,"freerecall","N/A","User","Guess Below. You must make at least one guess. Click submit when you are finished.","OFF","Accident <br />  <br /> Color <br />  <br /> ",103710,23020,91440,NA,NA,NA,NA,NA,NA
"AD4ALUT6LXXBU","Collector",1,93,"2016-06-06T16:30:07-07:00","109",2,"Stimuli/versionBstim.txt","Procedure/versionBproc.txt","Tetris",NA,"n/a","n/a","n/a","n/a","n/a",0,"Instruct","N/A","User","Click the button below for the next list.","OFF","",105410,NA,NA,NA,NA,NA,NA,NA,NA
"AD4ALUT6LXXBU","Collector",1,94,"2016-06-06T16:30:12-07:00","5",2,"Stimuli/versionBstim.txt","Procedure/versionBproc.txt","Tetris",NA,"PUCK","","PUCK","OFF","AdHoc_G_L5",83,"Study","No","3","AdHoc_G_L5","ON","",3000,NA,NA,NA,NA,NA,NA,NA,NA
"AD4ALUT6LXXBU","Collector",1,95,"2016-06-06T16:30:18-07:00","6",2,"Stimuli/versionBstim.txt","Procedure/versionBproc.txt","Tetris",NA,"PANTHER","","PANTHER","OFF","AdHoc_G_L5",90,"Study","No","3","AdHoc_G_L5","ON","",3000,NA,NA,NA,NA,NA,NA,NA,NA
"AD4ALUT6LXXBU","Collector",1,96,"2016-06-06T16:30:23-07:00","5",2,"Stimuli/versionBstim.txt","Procedure/versionBproc.txt","Tetris",NA,"ONYX","","ONYX","OFF","AdHoc_G_L5",96,"Study","No","3","AdHoc_G_L5","ON","",3000,NA,NA,NA,NA,NA,NA,NA,NA
"AD4ALUT6LXXBU","Collector",1,97,"2016-06-06T16:30:28-07:00","5",2,"Stimuli/versionBstim.txt","Procedure/versionBproc.txt","Tetris",NA,"OBSIDIAN","","OBSIDIAN","OFF","AdHoc_G_L5",97,"Study","No","3","AdHoc_G_L5","ON","",3000,NA,NA,NA,NA,NA,NA,NA,NA
"AD4ALUT6LXXBU","Collector",1,98,"2016-06-06T16:30:33-07:00","5",2,"Stimuli/versionBstim.txt","Procedure/versionBproc.txt","Tetris",NA,"INK","","INK","OFF","AdHoc_G_L5",93,"Study","No","3","AdHoc_G_L5","ON","",3000,NA,NA,NA,NA,NA,NA,NA,NA
"AD4ALUT6LXXBU","Collector",1,99,"2016-06-06T16:30:38-07:00","5",2,"Stimuli/versionBstim.txt","Procedure/versionBproc.txt","Tetris",NA,"SPIDER","","SPIDER","OFF","AdHoc_G_L5",92,"Study","No","3","AdHoc_G_L5","ON","",3000,NA,NA,NA,NA,NA,NA,NA,NA
"AD4ALUT6LXXBU","Collector",1,100,"2016-06-06T16:30:43-07:00","5",2,"Stimuli/versionBstim.txt","Procedure/versionBproc.txt","Tetris",NA,"PAVEMENT","","PAVEMENT","OFF","AdHoc_G_L5",100,"Study","No","3","AdHoc_G_L5","ON","",3000,NA,NA,NA,NA,NA,NA,NA,NA
"AD4ALUT6LXXBU","Collector",1,101,"2016-06-06T16:30:47-07:00","4",2,"Stimuli/versionBstim.txt","Procedure/versionBproc.txt","Tetris",NA,"LICORICE","","LICORICE","OFF","AdHoc_G_L5",85,"Study","No","3","AdHoc_G_L5","ON","",3000,NA,NA,NA,NA,NA,NA,NA,NA
"AD4ALUT6LXXBU","Collector",1,102,"2016-06-06T16:30:52-07:00","5",2,"Stimuli/versionBstim.txt","Procedure/versionBproc.txt","Tetris",NA,"CHALKBOARD","","CHALKBOARD","OFF","AdHoc_G_L5",86,"Study","No","3","AdHoc_G_L5","ON","",3000,NA,NA,NA,NA,NA,NA,NA,NA
"AD4ALUT6LXXBU","Collector",1,103,"2016-06-06T16:30:57-07:00","5",2,"Stimuli/versionBstim.txt","Procedure/versionBproc.txt","Tetris",NA,"ASPHAULT","","ASPHAULT","OFF","AdHoc_G_L5",87,"Study","No","3","AdHoc_G_L5","ON","",3000,NA,NA,NA,NA,NA,NA,NA,NA
"AD4ALUT6LXXBU","Collector",1,104,"2016-06-06T16:31:02-07:00","5",2,"Stimuli/versionBstim.txt","Procedure/versionBproc.txt","Tetris",NA,"SHADOW","","SHADOW","OFF","AdHoc_G_L5",99,"Study","No","3","AdHoc_G_L5","ON","",3000,NA,NA,NA,NA,NA,NA,NA,NA
"AD4ALUT6LXXBU","Collector",1,105,"2016-06-06T16:31:07-07:00","5",2,"Stimuli/versionBstim.txt","Procedure/versionBproc.txt","Tetris",NA,"PEPPER ","","PEPPER ","OFF","AdHoc_G_L5",94,"Study","No","3","AdHoc_G_L5","ON","",3000,NA,NA,NA,NA,NA,NA,NA,NA
"AD4ALUT6LXXBU","Collector",1,106,"2016-06-06T16:31:12-07:00","5",2,"Stimuli/versionBstim.txt","Procedure/versionBproc.txt","Tetris",NA,"LIMOUSINE","","LIMOUSINE","OFF","AdHoc_G_L5",91,"Study","No","3","AdHoc_G_L5","ON","",3000,NA,NA,NA,NA,NA,NA,NA,NA
"AD4ALUT6LXXBU","Collector",1,107,"2016-06-06T16:31:17-07:00","5",2,"Stimuli/versionBstim.txt","Procedure/versionBproc.txt","Tetris",NA,"PUPIL","","PUPIL","OFF","AdHoc_G_L5",82,"Study","No","3","AdHoc_G_L5","ON","",3000,NA,NA,NA,NA,NA,NA,NA,NA
"AD4ALUT6LXXBU","Collector",1,108,"2016-06-06T16:31:22-07:00","5",2,"Stimuli/versionBstim.txt","Procedure/versionBproc.txt","Tetris",NA,"EBONY","","EBONY","OFF","AdHoc_G_L5",101,"Study","No","3","AdHoc_G_L5","ON","",3000,NA,NA,NA,NA,NA,NA,NA,NA
"AD4ALUT6LXXBU","Collector",1,109,"2016-06-06T16:31:27-07:00","5",2,"Stimuli/versionBstim.txt","Procedure/versionBproc.txt","Tetris",NA,"TUXEDO","","TUXEDO","OFF","AdHoc_G_L5",88,"Study","No","3","AdHoc_G_L5","ON","",3000,NA,NA,NA,NA,NA,NA,NA,NA
"AD4ALUT6LXXBU","Collector",1,110,"2016-06-06T16:31:32-07:00","5",2,"Stimuli/versionBstim.txt","Procedure/versionBproc.txt","Tetris",NA,"ASH","","ASH","OFF","AdHoc_G_L5",95,"Study","No","3","AdHoc_G_L5","ON","",3000,NA,NA,NA,NA,NA,NA,NA,NA
"AD4ALUT6LXXBU","Collector",1,111,"2016-06-06T16:31:37-07:00","5",2,"Stimuli/versionBstim.txt","Procedure/versionBproc.txt","Tetris",NA,"WITCH","","WITCH","OFF","AdHoc_G_L5",89,"Study","No","3","AdHoc_G_L5","ON","",3000,NA,NA,NA,NA,NA,NA,NA,NA
"AD4ALUT6LXXBU","Collector",1,112,"2016-06-06T16:31:42-07:00","5",2,"Stimuli/versionBstim.txt","Procedure/versionBproc.txt","Tetris",NA,"TIRES","","TIRES","OFF","AdHoc_G_L5",84,"Study","No","3","AdHoc_G_L5","ON","",3000,NA,NA,NA,NA,NA,NA,NA,NA
"AD4ALUT6LXXBU","Collector",1,113,"2016-06-06T16:31:47-07:00","5",2,"Stimuli/versionBstim.txt","Procedure/versionBproc.txt","Tetris",NA,"BRUISE","","BRUISE","OFF","AdHoc_G_L5",98,"Study","No","3","AdHoc_G_L5","ON","",3000,NA,NA,NA,NA,NA,NA,NA,NA
"AD4ALUT6LXXBU","Collector",1,114,"2016-06-06T16:31:57-07:00","10",2,"Stimuli/versionBstim.txt","Procedure/versionBproc.txt","Tetris",NA,"n/a","n/a","n/a","n/a","n/a",0,"Instruct","N/A","User","Guess Instructions: 5 words related to the list you just saw were not presented. Try to guess these words by typing them into the dialog box on the next screen. You must guess at least one.","OFF","",8560,NA,NA,NA,NA,NA,NA,NA,NA
"AD4ALUT6LXXBU","Collector",1,115,"2016-06-06T16:33:06-07:00","69",2,"Stimuli/versionBstim.txt","Procedure/versionBproc.txt","Tetris",NA,"n/a","n/a","n/a","n/a","n/a",0,"freerecall","N/A","User","Guess Below. You must make at least one guess. Click submit when you are finished.","OFF","Soil <br />  <br /> Beans",65320,1790,62850,NA,NA,NA,NA,NA,NA
"AD4ALUT6LXXBU","Collector",1,116,"2016-06-06T16:33:11-07:00","5",2,"Stimuli/versionBstim.txt","Procedure/versionBproc.txt","Tetris",NA,"n/a","n/a","n/a","n/a","n/a",0,"Instruct","N/A","User","Click the button below for the next list.","OFF","",2710,NA,NA,NA,NA,NA,NA,NA,NA
"AD4ALUT6LXXBU","Collector",1,117,"2016-06-06T16:33:16-07:00","5",2,"Stimuli/versionBstim.txt","Procedure/versionBproc.txt","Tetris",NA,"GLUE","","GLUE","OFF","Cat_G_L6",108,"Study","No","3","Cat_G_L6","ON","",3000,NA,NA,NA,NA,NA,NA,NA,NA
"AD4ALUT6LXXBU","Collector",1,118,"2016-06-06T16:33:20-07:00","4",2,"Stimuli/versionBstim.txt","Procedure/versionBproc.txt","Tetris",NA,"FILE","","FILE","OFF","Cat_G_L6",110,"Study","No","3","Cat_G_L6","ON","",3000,NA,NA,NA,NA,NA,NA,NA,NA
"AD4ALUT6LXXBU","Collector",1,119,"2016-06-06T16:33:25-07:00","5",2,"Stimuli/versionBstim.txt","Procedure/versionBproc.txt","Tetris",NA,"LEVEL","","LEVEL","OFF","Cat_G_L6",103,"Study","No","3","Cat_G_L6","ON","",3000,NA,NA,NA,NA,NA,NA,NA,NA
"AD4ALUT6LXXBU","Collector",1,120,"2016-06-06T16:33:30-07:00","5",2,"Stimuli/versionBstim.txt","Procedure/versionBproc.txt","Tetris",NA,"SAWHORSE","","SAWHORSE","OFF","Cat_G_L6",109,"Study","No","3","Cat_G_L6","ON","",3000,NA,NA,NA,NA,NA,NA,NA,NA
"AD4ALUT6LXXBU","Collector",1,121,"2016-06-06T16:33:35-07:00","5",2,"Stimuli/versionBstim.txt","Procedure/versionBproc.txt","Tetris",NA,"CROWBAR","","CROWBAR","OFF","Cat_G_L6",114,"Study","No","3","Cat_G_L6","ON","",3000,NA,NA,NA,NA,NA,NA,NA,NA
"AD4ALUT6LXXBU","Collector",1,122,"2016-06-06T16:33:40-07:00","5",2,"Stimuli/versionBstim.txt","Procedure/versionBproc.txt","Tetris",NA,"WRENCH","","WRENCH","OFF","Cat_G_L6",105,"Study","No","3","Cat_G_L6","ON","",3000,NA,NA,NA,NA,NA,NA,NA,NA
"AD4ALUT6LXXBU","Collector",1,123,"2016-06-06T16:33:45-07:00","5",2,"Stimuli/versionBstim.txt","Procedure/versionBproc.txt","Tetris",NA,"LATHE","","LATHE","OFF","Cat_G_L6",111,"Study","No","3","Cat_G_L6","ON","",3000,NA,NA,NA,NA,NA,NA,NA,NA
"AD4ALUT6LXXBU","Collector",1,124,"2016-06-06T16:33:49-07:00","4",2,"Stimuli/versionBstim.txt","Procedure/versionBproc.txt","Tetris",NA,"HINGE","","HINGE","OFF","Cat_G_L6",121,"Study","No","3","Cat_G_L6","ON","",3000,NA,NA,NA,NA,NA,NA,NA,NA
"AD4ALUT6LXXBU","Collector",1,125,"2016-06-06T16:33:54-07:00","5",2,"Stimuli/versionBstim.txt","Procedure/versionBproc.txt","Tetris",NA,"SANDER","","SANDER","OFF","Cat_G_L6",115,"Study","No","3","Cat_G_L6","ON","",3000,NA,NA,NA,NA,NA,NA,NA,NA
"AD4ALUT6LXXBU","Collector",1,126,"2016-06-06T16:33:59-07:00","5",2,"Stimuli/versionBstim.txt","Procedure/versionBproc.txt","Tetris",NA,"WEDGE","","WEDGE","OFF","Cat_G_L6",117,"Study","No","3","Cat_G_L6","ON","",3000,NA,NA,NA,NA,NA,NA,NA,NA
"AD4ALUT6LXXBU","Collector",1,127,"2016-06-06T16:34:04-07:00","5",2,"Stimuli/versionBstim.txt","Procedure/versionBproc.txt","Tetris",NA,"AXE","","AXE","OFF","Cat_G_L6",118,"Study","No","3","Cat_G_L6","ON","",3000,NA,NA,NA,NA,NA,NA,NA,NA
"AD4ALUT6LXXBU","Collector",1,128,"2016-06-06T16:34:09-07:00","5",2,"Stimuli/versionBstim.txt","Procedure/versionBproc.txt","Tetris",NA,"NAILS","","NAILS","OFF","Cat_G_L6",102,"Study","No","3","Cat_G_L6","ON","",3000,NA,NA,NA,NA,NA,NA,NA,NA
"AD4ALUT6LXXBU","Collector",1,129,"2016-06-06T16:34:14-07:00","5",2,"Stimuli/versionBstim.txt","Procedure/versionBproc.txt","Tetris",NA,"DRILL","","DRILL","OFF","Cat_G_L6",106,"Study","No","3","Cat_G_L6","ON","",3000,NA,NA,NA,NA,NA,NA,NA,NA
"AD4ALUT6LXXBU","Collector",1,130,"2016-06-06T16:34:18-07:00","4",2,"Stimuli/versionBstim.txt","Procedure/versionBproc.txt","Tetris",NA,"SANDPAPER","","SANDPAPER","OFF","Cat_G_L6",112,"Study","No","3","Cat_G_L6","ON","",3000,NA,NA,NA,NA,NA,NA,NA,NA
"AD4ALUT6LXXBU","Collector",1,131,"2016-06-06T16:34:23-07:00","5",2,"Stimuli/versionBstim.txt","Procedure/versionBproc.txt","Tetris",NA,"BOLTS","","BOLTS","OFF","Cat_G_L6",120,"Study","No","3","Cat_G_L6","ON","",3000,NA,NA,NA,NA,NA,NA,NA,NA
"AD4ALUT6LXXBU","Collector",1,132,"2016-06-06T16:34:28-07:00","5",2,"Stimuli/versionBstim.txt","Procedure/versionBproc.txt","Tetris",NA,"VISE","","VISE","OFF","Cat_G_L6",119,"Study","No","3","Cat_G_L6","ON","",3000,NA,NA,NA,NA,NA,NA,NA,NA
"AD4ALUT6LXXBU","Collector",1,133,"2016-06-06T16:34:33-07:00","5",2,"Stimuli/versionBstim.txt","Procedure/versionBproc.txt","Tetris",NA,"WOOD","","WOOD","OFF","Cat_G_L6",116,"Study","No","3","Cat_G_L6","ON","",3000,NA,NA,NA,NA,NA,NA,NA,NA
"AD4ALUT6LXXBU","Collector",1,134,"2016-06-06T16:34:38-07:00","5",2,"Stimuli/versionBstim.txt","Procedure/versionBproc.txt","Tetris",NA,"SCREWS","","SCREWS","OFF","Cat_G_L6",107,"Study","No","3","Cat_G_L6","ON","",3000,NA,NA,NA,NA,NA,NA,NA,NA
"AD4ALUT6LXXBU","Collector",1,135,"2016-06-06T16:34:43-07:00","5",2,"Stimuli/versionBstim.txt","Procedure/versionBproc.txt","Tetris",NA,"CHISEL","","CHISEL","OFF","Cat_G_L6",104,"Study","No","3","Cat_G_L6","ON","",3000,NA,NA,NA,NA,NA,NA,NA,NA
"AD4ALUT6LXXBU","Collector",1,136,"2016-06-06T16:34:48-07:00","5",2,"Stimuli/versionBstim.txt","Procedure/versionBproc.txt","Tetris",NA,"AWL","","AWL","OFF","Cat_G_L6",113,"Study","No","3","Cat_G_L6","ON","",3000,NA,NA,NA,NA,NA,NA,NA,NA
"AD4ALUT6LXXBU","Collector",1,137,"2016-06-06T16:34:52-07:00","4",2,"Stimuli/versionBstim.txt","Procedure/versionBproc.txt","Tetris",NA,"n/a","n/a","n/a","n/a","n/a",0,"Instruct","N/A","User","Guess Instructions: 5 words related to the list you just saw were not presented. Try to guess these words by typing them into the dialog box on the next screen. You must guess at least one.","OFF","",2640,NA,NA,NA,NA,NA,NA,NA,NA
"AD4ALUT6LXXBU","Collector",1,138,"2016-06-06T16:35:31-07:00","39",2,"Stimuli/versionBstim.txt","Procedure/versionBproc.txt","Tetris",NA,"n/a","n/a","n/a","n/a","n/a",0,"freerecall","N/A","User","Guess Below. You must make at least one guess. Click submit when you are finished.","OFF","Nuts <br />  <br /> Saw <br />  <br /> Hammer <br />  <br /> ",36370,2850,31550,NA,NA,NA,NA,NA,NA
"AD4ALUT6LXXBU","Collector",1,139,"2016-06-06T16:35:46-07:00","15",2,"Stimuli/versionBstim.txt","Procedure/versionBproc.txt","Tetris",NA,"n/a","n/a","n/a","n/a","n/a",0,"Instruct","N/A","User","Now you will complete a recognition memory test based on the last 6 lists that you have studied. A word will be displayed on the computer screen and you are to decide whether the word was studied in the last 6 lists. If the word was studied, click the yes button. If the word was not studied, click the no button. Respond as quickly as possible without compromising accuracy.","OFF","",13060,NA,NA,NA,NA,NA,NA,NA,NA
"AD4ALUT6LXXBU","Collector",1,140,"2016-06-06T16:35:50-07:00","4",2,"Stimuli/versionBstim.txt","Procedure/versionBproc.txt","Tetris",NA,"n/a","n/a","n/a","n/a","n/a",0,"Instruct","N/A","User","Click the button below to begin the test.","OFF","",2220,NA,NA,NA,NA,NA,NA,NA,NA
"AD4ALUT6LXXBU","Collector",1,141,"2016-06-06T16:35:54-07:00","4",2,"Stimuli/versionBstim.txt","Procedure/versionBproc.txt","Tetris",NA,"TANGERINE","","TANGERINE","OFF","NPLI_Cat_G",144,"seqrec","No","User","RGN Test","ON","No",1890,NA,NA,NA,NA,NA,NA,NA,NA
"AD4ALUT6LXXBU","Collector",1,142,"2016-06-06T16:35:59-07:00","5",2,"Stimuli/versionBstim.txt","Procedure/versionBproc.txt","Tetris",NA,"SIREN","","SIREN","OFF","NPCI_AdHoc_G",199,"seqrec","No","User","RGN Test","ON","No",3040,NA,NA,NA,NA,NA,NA,NA,NA
"AD4ALUT6LXXBU","Collector",1,143,"2016-06-06T16:36:04-07:00","5",2,"Stimuli/versionBstim.txt","Procedure/versionBproc.txt","Tetris",NA,"SWEAT","","SWEAT","OFF","LI_AdHoc_G",214,"seqrec","No","User","RGN Test","ON","Yes",3160,NA,NA,NA,NA,NA,NA,NA,NA
"AD4ALUT6LXXBU","Collector",1,144,"2016-06-06T16:36:08-07:00","4",2,"Stimuli/versionBstim.txt","Procedure/versionBproc.txt","Tetris",NA,"GASOLINE","","GASOLINE","OFF","LI_AdHoc_G",219,"seqrec","No","User","RGN Test","ON","Yes",1450,NA,NA,NA,NA,NA,NA,NA,NA
"AD4ALUT6LXXBU","Collector",1,145,"2016-06-06T16:36:11-07:00","3",2,"Stimuli/versionBstim.txt","Procedure/versionBproc.txt","Tetris",NA,"WINE","","WINE","OFF","LI_AdHoc_G",215,"seqrec","No","User","RGN Test","ON","Yes",1420,NA,NA,NA,NA,NA,NA,NA,NA
"AD4ALUT6LXXBU","Collector",1,146,"2016-06-06T16:36:15-07:00","4",2,"Stimuli/versionBstim.txt","Procedure/versionBproc.txt","Tetris",NA,"LIME","","LIME","OFF","NPLI_AdHoc_G",130,"seqrec","No","User","RGN Test","ON","No",1900,NA,NA,NA,NA,NA,NA,NA,NA
"AD4ALUT6LXXBU","Collector",1,147,"2016-06-06T16:36:19-07:00","4",2,"Stimuli/versionBstim.txt","Procedure/versionBproc.txt","Tetris",NA,"SODA","","SODA","OFF","LI_AdHoc_G",212,"seqrec","No","User","RGN Test","ON","Yes",1970,NA,NA,NA,NA,NA,NA,NA,NA
"AD4ALUT6LXXBU","Collector",1,148,"2016-06-06T16:36:22-07:00","3",2,"Stimuli/versionBstim.txt","Procedure/versionBproc.txt","Tetris",NA,"MUD","","MUD","OFF","NPCI_Unrel_G",209,"seqrec","No","User","RGN Test","ON","No",1710,NA,NA,NA,NA,NA,NA,NA,NA
"AD4ALUT6LXXBU","Collector",1,149,"2016-06-06T16:36:26-07:00","4",2,"Stimuli/versionBstim.txt","Procedure/versionBproc.txt","Tetris",NA,"RAVEN","","RAVEN","OFF","CI_AdHoc_G",295,"seqrec","No","User","RGN Test","ON","No",1910,NA,NA,NA,NA,NA,NA,NA,NA
"AD4ALUT6LXXBU","Collector",1,150,"2016-06-06T16:36:30-07:00","4",2,"Stimuli/versionBstim.txt","Procedure/versionBproc.txt","Tetris",NA,"LEVEL","","LEVEL","OFF","LI_Cat_G",262,"seqrec","No","User","RGN Test","ON","Yes",1790,NA,NA,NA,NA,NA,NA,NA,NA
"AD4ALUT6LXXBU","Collector",1,151,"2016-06-06T16:36:33-07:00","3",2,"Stimuli/versionBstim.txt","Procedure/versionBproc.txt","Tetris",NA,"CREPE","","CREPE","OFF","LI_Unrel_G",246,"seqrec","No","User","RGN Test","ON","Yes",1590,NA,NA,NA,NA,NA,NA,NA,NA
"AD4ALUT6LXXBU","Collector",1,152,"2016-06-06T16:36:37-07:00","4",2,"Stimuli/versionBstim.txt","Procedure/versionBproc.txt","Tetris",NA,"VALLEY","","VALLEY","OFF","CI_Unrel_G",283,"seqrec","No","User","RGN Test","ON","No",1790,NA,NA,NA,NA,NA,NA,NA,NA
"AD4ALUT6LXXBU","Collector",1,153,"2016-06-06T16:36:40-07:00","3",2,"Stimuli/versionBstim.txt","Procedure/versionBproc.txt","Tetris",NA,"GUN","","GUN","OFF","NPCI_AdHoc_G",198,"seqrec","No","User","RGN Test","ON","No",1620,NA,NA,NA,NA,NA,NA,NA,NA
"AD4ALUT6LXXBU","Collector",1,154,"2016-06-06T16:36:44-07:00","4",2,"Stimuli/versionBstim.txt","Procedure/versionBproc.txt","Tetris",NA,"DRUMS","","DRUMS","OFF","NPLI_AdHoc_G",157,"seqrec","No","User","RGN Test","ON","No",1300,NA,NA,NA,NA,NA,NA,NA,NA
"AD4ALUT6LXXBU","Collector",1,155,"2016-06-06T16:36:48-07:00","4",2,"Stimuli/versionBstim.txt","Procedure/versionBproc.txt","Tetris",NA,"RAIN ","","RAIN ","OFF","CI_AdHoc_G",275,"seqrec","No","User","RGN Test","ON","Yes",1890,NA,NA,NA,NA,NA,NA,NA,NA
"AD4ALUT6LXXBU","Collector",1,156,"2016-06-06T16:36:51-07:00","3",2,"Stimuli/versionBstim.txt","Procedure/versionBproc.txt","Tetris",NA,"CARROT","","CARROT","OFF","CI_Cat_G",281,"seqrec","No","User","RGN Test","ON","No",1460,NA,NA,NA,NA,NA,NA,NA,NA
"AD4ALUT6LXXBU","Collector",1,157,"2016-06-06T16:36:54-07:00","3",2,"Stimuli/versionBstim.txt","Procedure/versionBproc.txt","Tetris",NA,"OBSIDIAN","","OBSIDIAN","OFF","LI_AdHoc_G",259,"seqrec","No","User","RGN Test","ON","Yes",1580,NA,NA,NA,NA,NA,NA,NA,NA
"AD4ALUT6LXXBU","Collector",1,158,"2016-06-06T16:36:58-07:00","4",2,"Stimuli/versionBstim.txt","Procedure/versionBproc.txt","Tetris",NA,"OCTOPUS","","OCTOPUS","OFF","NPCI_Unrel_G",190,"seqrec","No","User","RGN Test","ON","No",1630,NA,NA,NA,NA,NA,NA,NA,NA
"AD4ALUT6LXXBU","Collector",1,159,"2016-06-06T16:37:03-07:00","5",2,"Stimuli/versionBstim.txt","Procedure/versionBproc.txt","Tetris",NA,"VAULT","","VAULT","OFF","CI_Unrel_G",289,"seqrec","No","User","RGN Test","ON","No",1980,NA,NA,NA,NA,NA,NA,NA,NA
"AD4ALUT6LXXBU","Collector",1,160,"2016-06-06T16:37:09-07:00","6",2,"Stimuli/versionBstim.txt","Procedure/versionBproc.txt","Tetris",NA,"ENGINE","","ENGINE","OFF","NPLI_Unrel_G",177,"seqrec","No","User","RGN Test","ON","No",1440,NA,NA,NA,NA,NA,NA,NA,NA
"AD4ALUT6LXXBU","Collector",1,161,"2016-06-06T16:37:13-07:00","4",2,"Stimuli/versionBstim.txt","Procedure/versionBproc.txt","Tetris",NA,"SALAD","","SALAD","OFF","NPLI_AdHoc_G",131,"seqrec","No","User","RGN Test","ON","No",1360,NA,NA,NA,NA,NA,NA,NA,NA
"AD4ALUT6LXXBU","Collector",1,162,"2016-06-06T16:37:16-07:00","3",2,"Stimuli/versionBstim.txt","Procedure/versionBproc.txt","Tetris",NA,"PACKET","","PACKET","OFF","CI_Unrel_G",290,"seqrec","No","User","RGN Test","ON","No",1400,NA,NA,NA,NA,NA,NA,NA,NA
"AD4ALUT6LXXBU","Collector",1,163,"2016-06-06T16:37:20-07:00","4",2,"Stimuli/versionBstim.txt","Procedure/versionBproc.txt","Tetris",NA,"ASPHALT","","ASPHALT","OFF","LI_AdHoc_G",254,"seqrec","No","User","RGN Test","ON","Yes",1700,NA,NA,NA,NA,NA,NA,NA,NA
"AD4ALUT6LXXBU","Collector",1,164,"2016-06-06T16:37:23-07:00","3",2,"Stimuli/versionBstim.txt","Procedure/versionBproc.txt","Tetris",NA,"AVOCADO","","AVOCADO","OFF","NPCI_AdHoc_G",184,"seqrec","No","User","RGN Test","ON","No",1590,NA,NA,NA,NA,NA,NA,NA,NA
"AD4ALUT6LXXBU","Collector",1,165,"2016-06-06T16:37:26-07:00","3",2,"Stimuli/versionBstim.txt","Procedure/versionBproc.txt","Tetris",NA,"CHAIN SAW","","CHAIN SAW","OFF","NPLI_AdHoc_G",154,"seqrec","No","User","RGN Test","ON","No",1380,NA,NA,NA,NA,NA,NA,NA,NA
"AD4ALUT6LXXBU","Collector",1,166,"2016-06-06T16:37:30-07:00","4",2,"Stimuli/versionBstim.txt","Procedure/versionBproc.txt","Tetris",NA,"SUNRISE","","SUNRISE","OFF","NPLI_Unrel_G",181,"seqrec","No","User","RGN Test","ON","No",1380,NA,NA,NA,NA,NA,NA,NA,NA
"AD4ALUT6LXXBU","Collector",1,167,"2016-06-06T16:37:33-07:00","3",2,"Stimuli/versionBstim.txt","Procedure/versionBproc.txt","Tetris",NA,"RAT","","RAT","OFF","NPLI_Cat_G",164,"seqrec","No","User","RGN Test","ON","No",1460,NA,NA,NA,NA,NA,NA,NA,NA
"AD4ALUT6LXXBU","Collector",1,168,"2016-06-06T16:37:37-07:00","4",2,"Stimuli/versionBstim.txt","Procedure/versionBproc.txt","Tetris",NA,"VINEGAR","","VINEGAR","OFF","LI_AdHoc_G",220,"seqrec","No","User","RGN Test","ON","Yes",1760,NA,NA,NA,NA,NA,NA,NA,NA
"AD4ALUT6LXXBU","Collector",1,169,"2016-06-06T16:37:40-07:00","3",2,"Stimuli/versionBstim.txt","Procedure/versionBproc.txt","Tetris",NA,"ELEPHANT","","ELEPHANT","OFF","NPLI_Cat_G",163,"seqrec","No","User","RGN Test","ON","No",1730,NA,NA,NA,NA,NA,NA,NA,NA
"AD4ALUT6LXXBU","Collector",1,170,"2016-06-06T16:37:44-07:00","4",2,"Stimuli/versionBstim.txt","Procedure/versionBproc.txt","Tetris",NA,"CHERRY","","CHERRY","OFF","NPLI_Cat_G",143,"seqrec","No","User","RGN Test","ON","No",1480,NA,NA,NA,NA,NA,NA,NA,NA
"AD4ALUT6LXXBU","Collector",1,171,"2016-06-06T16:37:47-07:00","3",2,"Stimuli/versionBstim.txt","Procedure/versionBproc.txt","Tetris",NA,"BUFFALO","","BUFFALO","OFF","NPLI_Cat_G",171,"seqrec","No","User","RGN Test","ON","No",1190,NA,NA,NA,NA,NA,NA,NA,NA
"AD4ALUT6LXXBU","Collector",1,172,"2016-06-06T16:37:51-07:00","4",2,"Stimuli/versionBstim.txt","Procedure/versionBproc.txt","Tetris",NA,"SHRIMP","","SHRIMP","OFF","NPLI_Unrel_G",140,"seqrec","No","User","RGN Test","ON","No",1420,NA,NA,NA,NA,NA,NA,NA,NA
"AD4ALUT6LXXBU","Collector",1,173,"2016-06-06T16:37:55-07:00","4",2,"Stimuli/versionBstim.txt","Procedure/versionBproc.txt","Tetris",NA,"MOUSE","","MOUSE","OFF","NPCI_Cat_G",206,"seqrec","No","User","RGN Test","ON","No",2450,NA,NA,NA,NA,NA,NA,NA,NA
"AD4ALUT6LXXBU","Collector",1,174,"2016-06-06T16:37:58-07:00","3",2,"Stimuli/versionBstim.txt","Procedure/versionBproc.txt","Tetris",NA,"SHORE","","SHORE","OFF","NPLI_Unrel_G",178,"seqrec","No","User","RGN Test","ON","No",1080,NA,NA,NA,NA,NA,NA,NA,NA
"AD4ALUT6LXXBU","Collector",1,175,"2016-06-06T16:38:01-07:00","3",2,"Stimuli/versionBstim.txt","Procedure/versionBproc.txt","Tetris",NA,"WHIP","","WHIP","OFF","LI_Unrel_G",250,"seqrec","No","User","RGN Test","ON","Yes",1420,NA,NA,NA,NA,NA,NA,NA,NA
"AD4ALUT6LXXBU","Collector",1,176,"2016-06-06T16:38:05-07:00","4",2,"Stimuli/versionBstim.txt","Procedure/versionBproc.txt","Tetris",NA,"PINEAPPLE","","PINEAPPLE","OFF","NPLI_Cat_G",145,"seqrec","No","User","RGN Test","ON","No",1820,NA,NA,NA,NA,NA,NA,NA,NA
"AD4ALUT6LXXBU","Collector",1,177,"2016-06-06T16:38:09-07:00","4",2,"Stimuli/versionBstim.txt","Procedure/versionBproc.txt","Tetris",NA,"CANISTER","","CANISTER","OFF","LI_Unrel_G",238,"seqrec","No","User","RGN Test","ON","Yes",1580,NA,NA,NA,NA,NA,NA,NA,NA
"AD4ALUT6LXXBU","Collector",1,178,"2016-06-06T16:38:14-07:00","5",2,"Stimuli/versionBstim.txt","Procedure/versionBproc.txt","Tetris",NA,"PIG","","PIG","OFF","NPCI_Cat_G",205,"seqrec","No","User","RGN Test","ON","No",3590,NA,NA,NA,NA,NA,NA,NA,NA
"AD4ALUT6LXXBU","Collector",1,179,"2016-06-06T16:38:17-07:00","3",2,"Stimuli/versionBstim.txt","Procedure/versionBproc.txt","Tetris",NA,"GRAPE","","GRAPE","OFF","NPCI_Cat_G",194,"seqrec","No","User","RGN Test","ON","No",1280,NA,NA,NA,NA,NA,NA,NA,NA
"AD4ALUT6LXXBU","Collector",1,180,"2016-06-06T16:38:21-07:00","4",2,"Stimuli/versionBstim.txt","Procedure/versionBproc.txt","Tetris",NA,"ONION","","ONION","OFF","LI_Cat_G",227,"seqrec","No","User","RGN Test","ON","Yes",1710,NA,NA,NA,NA,NA,NA,NA,NA
"AD4ALUT6LXXBU","Collector",1,181,"2016-06-06T16:38:24-07:00","3",2,"Stimuli/versionBstim.txt","Procedure/versionBproc.txt","Tetris",NA,"SHEEP","","SHEEP","OFF","NPLI_Cat_G",165,"seqrec","No","User","RGN Test","ON","No",1790,NA,NA,NA,NA,NA,NA,NA,NA
"AD4ALUT6LXXBU","Collector",1,182,"2016-06-06T16:38:28-07:00","4",2,"Stimuli/versionBstim.txt","Procedure/versionBproc.txt","Tetris",NA,"RAINBOW","","RAINBOW","OFF","LI_Unrel_G",243,"seqrec","No","User","RGN Test","ON","Yes",1550,NA,NA,NA,NA,NA,NA,NA,NA
"AD4ALUT6LXXBU","Collector",1,183,"2016-06-06T16:38:31-07:00","3",2,"Stimuli/versionBstim.txt","Procedure/versionBproc.txt","Tetris",NA,"DECK","","DECK","OFF","NPLI_Unrel_G",180,"seqrec","No","User","RGN Test","ON","No",1470,NA,NA,NA,NA,NA,NA,NA,NA
"AD4ALUT6LXXBU","Collector",1,184,"2016-06-06T16:38:35-07:00","4",2,"Stimuli/versionBstim.txt","Procedure/versionBproc.txt","Tetris",NA,"MERCURY","","MERCURY","OFF","LI_AdHoc_G",213,"seqrec","No","User","RGN Test","ON","Yes",1290,NA,NA,NA,NA,NA,NA,NA,NA
"AD4ALUT6LXXBU","Collector",1,185,"2016-06-06T16:38:38-07:00","3",2,"Stimuli/versionBstim.txt","Procedure/versionBproc.txt","Tetris",NA,"BAT","","BAT","OFF","CI_AdHoc_G",294,"seqrec","No","User","RGN Test","ON","No",1530,NA,NA,NA,NA,NA,NA,NA,NA
"AD4ALUT6LXXBU","Collector",1,186,"2016-06-06T16:38:42-07:00","4",2,"Stimuli/versionBstim.txt","Procedure/versionBproc.txt","Tetris",NA,"RUT","","RUT","OFF","LI_Unrel_G",249,"seqrec","No","User","RGN Test","ON","Yes",1760,NA,NA,NA,NA,NA,NA,NA,NA
"AD4ALUT6LXXBU","Collector",1,187,"2016-06-06T16:38:45-07:00","3",2,"Stimuli/versionBstim.txt","Procedure/versionBproc.txt","Tetris",NA,"SAND","","SAND","OFF","NPLI_Unrel_G",138,"seqrec","No","User","RGN Test","ON","No",1510,NA,NA,NA,NA,NA,NA,NA,NA
"AD4ALUT6LXXBU","Collector",1,188,"2016-06-06T16:38:48-07:00","3",2,"Stimuli/versionBstim.txt","Procedure/versionBproc.txt","Tetris",NA,"JUICE","","JUICE","OFF","CI_AdHoc_G",274,"seqrec","No","User","RGN Test","ON","No",1470,NA,NA,NA,NA,NA,NA,NA,NA
"AD4ALUT6LXXBU","Collector",1,189,"2016-06-06T16:38:52-07:00","4",2,"Stimuli/versionBstim.txt","Procedure/versionBproc.txt","Tetris",NA,"LEOPARD","","LEOPARD","OFF","NPLI_Cat_G",169,"seqrec","No","User","RGN Test","ON","No",1580,NA,NA,NA,NA,NA,NA,NA,NA
"AD4ALUT6LXXBU","Collector",1,190,"2016-06-06T16:38:55-07:00","3",2,"Stimuli/versionBstim.txt","Procedure/versionBproc.txt","Tetris",NA,"BLUEBERRY","","BLUEBERRY","OFF","NPLI_Cat_G",148,"seqrec","No","User","RGN Test","ON","No",1390,NA,NA,NA,NA,NA,NA,NA,NA
"AD4ALUT6LXXBU","Collector",1,191,"2016-06-06T16:38:59-07:00","4",2,"Stimuli/versionBstim.txt","Procedure/versionBproc.txt","Tetris",NA,"HOT CHOCOLATE","","HOT CHOCOLATE","OFF","LI_AdHoc_G",216,"seqrec","No","User","RGN Test","ON","Yes",1630,NA,NA,NA,NA,NA,NA,NA,NA
"AD4ALUT6LXXBU","Collector",1,192,"2016-06-06T16:39:02-07:00","3",2,"Stimuli/versionBstim.txt","Procedure/versionBproc.txt","Tetris",NA,"SPINACH","","SPINACH","OFF","CI_Cat_G",280,"seqrec","No","User","RGN Test","ON","No",1830,NA,NA,NA,NA,NA,NA,NA,NA
"AD4ALUT6LXXBU","Collector",1,193,"2016-06-06T16:39:06-07:00","4",2,"Stimuli/versionBstim.txt","Procedure/versionBproc.txt","Tetris",NA,"PUPPY","","PUPPY","OFF","LI_Unrel_G",245,"seqrec","No","User","RGN Test","ON","Yes",1390,NA,NA,NA,NA,NA,NA,NA,NA
"AD4ALUT6LXXBU","Collector",1,194,"2016-06-06T16:39:09-07:00","3",2,"Stimuli/versionBstim.txt","Procedure/versionBproc.txt","Tetris",NA,"PYRAMID","","PYRAMID","OFF","NPLI_Unrel_G",133,"seqrec","No","User","RGN Test","ON","No",1570,NA,NA,NA,NA,NA,NA,NA,NA
"AD4ALUT6LXXBU","Collector",1,195,"2016-06-06T16:39:13-07:00","4",2,"Stimuli/versionBstim.txt","Procedure/versionBproc.txt","Tetris",NA,"CANTALOUPE","","CANTALOUPE","OFF","NPLI_Cat_G",147,"seqrec","No","User","RGN Test","ON","No",1510,NA,NA,NA,NA,NA,NA,NA,NA
"AD4ALUT6LXXBU","Collector",1,196,"2016-06-06T16:39:16-07:00","3",2,"Stimuli/versionBstim.txt","Procedure/versionBproc.txt","Tetris",NA,"INK","","INK","OFF","LI_AdHoc_G",257,"seqrec","No","User","RGN Test","ON","Yes",1570,NA,NA,NA,NA,NA,NA,NA,NA
"AD4ALUT6LXXBU","Collector",1,197,"2016-06-06T16:39:22-07:00","6",2,"Stimuli/versionBstim.txt","Procedure/versionBproc.txt","Tetris",NA,"SHADOW","","SHADOW","OFF","LI_AdHoc_G",260,"seqrec","No","User","RGN Test","ON","Yes",3200,NA,NA,NA,NA,NA,NA,NA,NA
"AD4ALUT6LXXBU","Collector",1,198,"2016-06-06T16:39:26-07:00","4",2,"Stimuli/versionBstim.txt","Procedure/versionBproc.txt","Tetris",NA,"LAWNMOWER","","LAWNMOWER","OFF","NPCI_AdHoc_G",200,"seqrec","No","User","RGN Test","ON","No",1940,NA,NA,NA,NA,NA,NA,NA,NA
"AD4ALUT6LXXBU","Collector",1,199,"2016-06-06T16:39:29-07:00","3",2,"Stimuli/versionBstim.txt","Procedure/versionBproc.txt","Tetris",NA,"INCENSE","","INCENSE","OFF","LI_Unrel_G",240,"seqrec","No","User","RGN Test","ON","Yes",1330,NA,NA,NA,NA,NA,NA,NA,NA
"AD4ALUT6LXXBU","Collector",1,200,"2016-06-06T16:39:32-07:00","3",2,"Stimuli/versionBstim.txt","Procedure/versionBproc.txt","Tetris",NA,"ORANGE","","ORANGE","OFF","NPCI_Cat_G",192,"seqrec","No","User","RGN Test","ON","No",1730,NA,NA,NA,NA,NA,NA,NA,NA
"AD4ALUT6LXXBU","Collector",1,201,"2016-06-06T16:39:35-07:00","3",2,"Stimuli/versionBstim.txt","Procedure/versionBproc.txt","Tetris",NA,"SQUIRREL","","SQUIRREL","OFF","NPLI_Cat_G",167,"seqrec","No","User","RGN Test","ON","No",1390,NA,NA,NA,NA,NA,NA,NA,NA
"AD4ALUT6LXXBU","Collector",1,202,"2016-06-06T16:39:39-07:00","4",2,"Stimuli/versionBstim.txt","Procedure/versionBproc.txt","Tetris",NA,"NIGHT","","NIGHT","OFF","CI_AdHoc_G",293,"seqrec","No","User","RGN Test","ON","No",1560,NA,NA,NA,NA,NA,NA,NA,NA
"AD4ALUT6LXXBU","Collector",1,203,"2016-06-06T16:39:42-07:00","3",2,"Stimuli/versionBstim.txt","Procedure/versionBproc.txt","Tetris",NA,"AWL","","AWL","OFF","LI_Cat_G",267,"seqrec","No","User","RGN Test","ON","Yes",1600,NA,NA,NA,NA,NA,NA,NA,NA
"AD4ALUT6LXXBU","Collector",1,204,"2016-06-06T16:39:45-07:00","3",2,"Stimuli/versionBstim.txt","Procedure/versionBproc.txt","Tetris",NA,"PEAR","","PEAR","OFF","NPLI_Cat_G",142,"seqrec","No","User","RGN Test","ON","No",1460,NA,NA,NA,NA,NA,NA,NA,NA
"AD4ALUT6LXXBU","Collector",1,205,"2016-06-06T16:39:49-07:00","4",2,"Stimuli/versionBstim.txt","Procedure/versionBproc.txt","Tetris",NA,"PUMPKIN","","PUMPKIN","OFF","LI_Cat_G",230,"seqrec","No","User","RGN Test","ON","Yes",1450,NA,NA,NA,NA,NA,NA,NA,NA
"AD4ALUT6LXXBU","Collector",1,206,"2016-06-06T16:39:52-07:00","3",2,"Stimuli/versionBstim.txt","Procedure/versionBproc.txt","Tetris",NA,"GOAT","","GOAT","OFF","NPLI_Cat_G",166,"seqrec","No","User","RGN Test","ON","No",1750,NA,NA,NA,NA,NA,NA,NA,NA
"AD4ALUT6LXXBU","Collector",1,207,"2016-06-06T16:39:56-07:00","4",2,"Stimuli/versionBstim.txt","Procedure/versionBproc.txt","Tetris",NA,"PUCK","","PUCK","OFF","LI_AdHoc_G",252,"seqrec","No","User","RGN Test","ON","Yes",1560,NA,NA,NA,NA,NA,NA,NA,NA
"AD4ALUT6LXXBU","Collector",1,208,"2016-06-06T16:39:59-07:00","3",2,"Stimuli/versionBstim.txt","Procedure/versionBproc.txt","Tetris",NA,"MALE","","MALE","OFF","LI_Unrel_G",248,"seqrec","No","User","RGN Test","ON","Yes",1490,NA,NA,NA,NA,NA,NA,NA,NA
"AD4ALUT6LXXBU","Collector",1,209,"2016-06-06T16:40:04-07:00","5",2,"Stimuli/versionBstim.txt","Procedure/versionBproc.txt","Tetris",NA,"CAULIFLOWER","","CAULIFLOWER","OFF","LI_Cat_G",225,"seqrec","No","User","RGN Test","ON","Yes",2610,NA,NA,NA,NA,NA,NA,NA,NA
"AD4ALUT6LXXBU","Collector",1,210,"2016-06-06T16:40:07-07:00","3",2,"Stimuli/versionBstim.txt","Procedure/versionBproc.txt","Tetris",NA,"STADIUM","","STADIUM","OFF","NPLI_Unrel_G",174,"seqrec","No","User","RGN Test","ON","No",1730,NA,NA,NA,NA,NA,NA,NA,NA
"AD4ALUT6LXXBU","Collector",1,211,"2016-06-06T16:40:12-07:00","5",2,"Stimuli/versionBstim.txt","Procedure/versionBproc.txt","Tetris",NA,"TRACTOR","","TRACTOR","OFF","NPLI_AdHoc_G",156,"seqrec","No","User","RGN Test","ON","No",2880,NA,NA,NA,NA,NA,NA,NA,NA
"AD4ALUT6LXXBU","Collector",1,212,"2016-06-06T16:40:16-07:00","4",2,"Stimuli/versionBstim.txt","Procedure/versionBproc.txt","Tetris",NA,"GHOUL","","GHOUL","OFF","LI_Unrel_G",233,"seqrec","No","User","RGN Test","ON","Yes",1730,NA,NA,NA,NA,NA,NA,NA,NA
"AD4ALUT6LXXBU","Collector",1,213,"2016-06-06T16:40:20-07:00","4",2,"Stimuli/versionBstim.txt","Procedure/versionBproc.txt","Tetris",NA,"LAKE","","LAKE","OFF","LI_AdHoc_G",217,"seqrec","No","User","RGN Test","ON","Yes",1730,NA,NA,NA,NA,NA,NA,NA,NA
"AD4ALUT6LXXBU","Collector",1,214,"2016-06-06T16:40:25-07:00","5",2,"Stimuli/versionBstim.txt","Procedure/versionBproc.txt","Tetris",NA,"TURNIP","","TURNIP","OFF","LI_Cat_G",228,"seqrec","No","User","RGN Test","ON","No",3140,NA,NA,NA,NA,NA,NA,NA,NA
"AD4ALUT6LXXBU","Collector",1,215,"2016-06-06T16:40:28-07:00","3",2,"Stimuli/versionBstim.txt","Procedure/versionBproc.txt","Tetris",NA,"HORSE","","HORSE","OFF","NPLI_Cat_G",162,"seqrec","No","User","RGN Test","ON","No",1500,NA,NA,NA,NA,NA,NA,NA,NA
"AD4ALUT6LXXBU","Collector",1,216,"2016-06-06T16:40:32-07:00","4",2,"Stimuli/versionBstim.txt","Procedure/versionBproc.txt","Tetris",NA,"POTATO","","POTATO","OFF","LI_Cat_G",222,"seqrec","No","User","RGN Test","ON","Yes",1520,NA,NA,NA,NA,NA,NA,NA,NA
"AD4ALUT6LXXBU","Collector",1,217,"2016-06-06T16:40:35-07:00","3",2,"Stimuli/versionBstim.txt","Procedure/versionBproc.txt","Tetris",NA,"CAT","","CAT","OFF","NPCI_Cat_G",202,"seqrec","No","User","RGN Test","ON","No",2000,NA,NA,NA,NA,NA,NA,NA,NA
"AD4ALUT6LXXBU","Collector",1,218,"2016-06-06T16:40:39-07:00","4",2,"Stimuli/versionBstim.txt","Procedure/versionBproc.txt","Tetris",NA,"TIGER","","TIGER","OFF","NPCI_Cat_G",204,"seqrec","No","User","RGN Test","ON","No",1430,NA,NA,NA,NA,NA,NA,NA,NA
"AD4ALUT6LXXBU","Collector",1,219,"2016-06-06T16:40:42-07:00","3",2,"Stimuli/versionBstim.txt","Procedure/versionBproc.txt","Tetris",NA,"FROG","","FROG","OFF","NPLI_AdHoc_G",123,"seqrec","No","User","RGN Test","ON","No",1340,NA,NA,NA,NA,NA,NA,NA,NA
"AD4ALUT6LXXBU","Collector",1,220,"2016-06-06T16:40:45-07:00","3",2,"Stimuli/versionBstim.txt","Procedure/versionBproc.txt","Tetris",NA,"TREAT","","TREAT","OFF","CI_Unrel_G",287,"seqrec","No","User","RGN Test","ON","No",1510,NA,NA,NA,NA,NA,NA,NA,NA
"AD4ALUT6LXXBU","Collector",1,221,"2016-06-06T16:40:49-07:00","4",2,"Stimuli/versionBstim.txt","Procedure/versionBproc.txt","Tetris",NA,"LEAVES","","LEAVES","OFF","NPLI_AdHoc_G",122,"seqrec","No","User","RGN Test","ON","No",1290,NA,NA,NA,NA,NA,NA,NA,NA
"AD4ALUT6LXXBU","Collector",1,222,"2016-06-06T16:40:53-07:00","4",2,"Stimuli/versionBstim.txt","Procedure/versionBproc.txt","Tetris",NA,"CROW","","CROW","OFF","CI_AdHoc_G",296,"seqrec","No","User","RGN Test","ON","No",2180,NA,NA,NA,NA,NA,NA,NA,NA
"AD4ALUT6LXXBU","Collector",1,223,"2016-06-06T16:40:56-07:00","3",2,"Stimuli/versionBstim.txt","Procedure/versionBproc.txt","Tetris",NA,"MINT","","MINT","OFF","NPCI_AdHoc_G",186,"seqrec","No","User","RGN Test","ON","No",1320,NA,NA,NA,NA,NA,NA,NA,NA
"AD4ALUT6LXXBU","Collector",1,224,"2016-06-06T16:41:01-07:00","5",2,"Stimuli/versionBstim.txt","Procedure/versionBproc.txt","Tetris",NA,"SAW","","SAW","OFF","CI_Cat_G",297,"seqrec","No","User","RGN Test","ON","No",1710,NA,NA,NA,NA,NA,NA,NA,NA
"AD4ALUT6LXXBU","Collector",1,225,"2016-06-06T16:41:04-07:00","3",2,"Stimuli/versionBstim.txt","Procedure/versionBproc.txt","Tetris",NA,"PLANE","","PLANE","OFF","CI_Cat_G",299,"seqrec","No","User","RGN Test","ON","No",1120,NA,NA,NA,NA,NA,NA,NA,NA
"AD4ALUT6LXXBU","Collector",1,226,"2016-06-06T16:41:08-07:00","4",2,"Stimuli/versionBstim.txt","Procedure/versionBproc.txt","Tetris",NA,"PAPERCLIP","","PAPERCLIP","OFF","LI_Unrel_G",239,"seqrec","No","User","RGN Test","ON","Yes",1750,NA,NA,NA,NA,NA,NA,NA,NA
"AD4ALUT6LXXBU","Collector",1,227,"2016-06-06T16:41:11-07:00","3",2,"Stimuli/versionBstim.txt","Procedure/versionBproc.txt","Tetris",NA,"PIPE","","PIPE","OFF","NPLI_Unrel_G",139,"seqrec","No","User","RGN Test","ON","No",1750,NA,NA,NA,NA,NA,NA,NA,NA
"AD4ALUT6LXXBU","Collector",1,228,"2016-06-06T16:41:14-07:00","3",2,"Stimuli/versionBstim.txt","Procedure/versionBproc.txt","Tetris",NA,"SCOUT","","SCOUT","OFF","LI_Unrel_G",236,"seqrec","No","User","RGN Test","ON","Yes",1560,NA,NA,NA,NA,NA,NA,NA,NA
"AD4ALUT6LXXBU","Collector",1,229,"2016-06-06T16:41:18-07:00","4",2,"Stimuli/versionBstim.txt","Procedure/versionBproc.txt","Tetris",NA,"COMEDY","","COMEDY","OFF","CI_Unrel_G",286,"seqrec","No","User","RGN Test","ON","No",1670,NA,NA,NA,NA,NA,NA,NA,NA
"AD4ALUT6LXXBU","Collector",1,230,"2016-06-06T16:41:21-07:00","3",2,"Stimuli/versionBstim.txt","Procedure/versionBproc.txt","Tetris",NA,"THUNDER","","THUNDER","OFF","NPCI_AdHoc_G",201,"seqrec","No","User","RGN Test","ON","No",1270,NA,NA,NA,NA,NA,NA,NA,NA
"AD4ALUT6LXXBU","Collector",1,231,"2016-06-06T16:41:25-07:00","4",2,"Stimuli/versionBstim.txt","Procedure/versionBproc.txt","Tetris",NA,"WOUND","","WOUND","OFF","NPCI_Unrel_G",189,"seqrec","No","User","RGN Test","ON","No",1700,NA,NA,NA,NA,NA,NA,NA,NA
"AD4ALUT6LXXBU","Collector",1,232,"2016-06-06T16:41:28-07:00","3",2,"Stimuli/versionBstim.txt","Procedure/versionBproc.txt","Tetris",NA,"HAMMER","","HAMMER","OFF","CI_Cat_G",301,"seqrec","No","User","RGN Test","ON","No",1490,NA,NA,NA,NA,NA,NA,NA,NA
"AD4ALUT6LXXBU","Collector",1,233,"2016-06-06T16:41:32-07:00","4",2,"Stimuli/versionBstim.txt","Procedure/versionBproc.txt","Tetris",NA,"CABBAGE","","CABBAGE","OFF","LI_Cat_G",224,"seqrec","No","User","RGN Test","ON","Yes",1760,NA,NA,NA,NA,NA,NA,NA,NA
"AD4ALUT6LXXBU","Collector",1,234,"2016-06-06T16:41:35-07:00","3",2,"Stimuli/versionBstim.txt","Procedure/versionBproc.txt","Tetris",NA,"CONE","","CONE","OFF","NPLI_Unrel_G",136,"seqrec","No","User","RGN Test","ON","No",1590,NA,NA,NA,NA,NA,NA,NA,NA
"AD4ALUT6LXXBU","Collector",1,235,"2016-06-06T16:41:38-07:00","3",2,"Stimuli/versionBstim.txt","Procedure/versionBproc.txt","Tetris",NA,"CAKE","","CAKE","OFF","NPLI_Unrel_G",173,"seqrec","No","User","RGN Test","ON","No",1260,NA,NA,NA,NA,NA,NA,NA,NA
"AD4ALUT6LXXBU","Collector",1,236,"2016-06-06T16:41:42-07:00","4",2,"Stimuli/versionBstim.txt","Procedure/versionBproc.txt","Tetris",NA,"TOMATO","","TOMATO","OFF","CI_Cat_G",279,"seqrec","No","User","RGN Test","ON","No",1190,NA,NA,NA,NA,NA,NA,NA,NA
"AD4ALUT6LXXBU","Collector",1,237,"2016-06-06T16:41:45-07:00","3",2,"Stimuli/versionBstim.txt","Procedure/versionBproc.txt","Tetris",NA,"POISON","","POISON","OFF","NPLI_Unrel_G",176,"seqrec","No","User","RGN Test","ON","No",1260,NA,NA,NA,NA,NA,NA,NA,NA
"AD4ALUT6LXXBU","Collector",1,238,"2016-06-06T16:41:49-07:00","4",2,"Stimuli/versionBstim.txt","Procedure/versionBproc.txt","Tetris",NA,"SHAMROCK","","SHAMROCK","OFF","NPLI_AdHoc_G",125,"seqrec","No","User","RGN Test","ON","No",1310,NA,NA,NA,NA,NA,NA,NA,NA
"AD4ALUT6LXXBU","Collector",1,239,"2016-06-06T16:41:58-07:00","9",2,"Stimuli/versionBstim.txt","Procedure/versionBproc.txt","Tetris",NA,"GREEN BEANS","","GREEN BEANS","OFF","CI_Cat_G",278,"seqrec","No","User","RGN Test","ON","Yes",5410,NA,NA,NA,NA,NA,NA,NA,NA
"AD4ALUT6LXXBU","Collector",1,240,"2016-06-06T16:42:01-07:00","3",2,"Stimuli/versionBstim.txt","Procedure/versionBproc.txt","Tetris",NA,"TENNIS BALL","","TENNIS BALL","OFF","NPLI_AdHoc_G",127,"seqrec","No","User","RGN Test","ON","No",1630,NA,NA,NA,NA,NA,NA,NA,NA
"AD4ALUT6LXXBU","Collector",1,241,"2016-06-06T16:42:05-07:00","4",2,"Stimuli/versionBstim.txt","Procedure/versionBproc.txt","Tetris",NA,"HUCKLEBERRY","","HUCKLEBERRY","OFF","NPLI_Cat_G",151,"seqrec","No","User","RGN Test","ON","No",1150,NA,NA,NA,NA,NA,NA,NA,NA
"AD4ALUT6LXXBU","Collector",1,242,"2016-06-06T16:42:07-07:00","2",2,"Stimuli/versionBstim.txt","Procedure/versionBproc.txt","Tetris",NA,"DIAGRAM","","DIAGRAM","OFF","CI_Unrel_G",282,"seqrec","No","User","RGN Test","ON","No",1080,NA,NA,NA,NA,NA,NA,NA,NA
"AD4ALUT6LXXBU","Collector",1,243,"2016-06-06T16:42:11-07:00","4",2,"Stimuli/versionBstim.txt","Procedure/versionBproc.txt","Tetris",NA,"MACHINE","","MACHINE","OFF","LI_Unrel_G",244,"seqrec","No","User","RGN Test","ON","Yes",1640,NA,NA,NA,NA,NA,NA,NA,NA
"AD4ALUT6LXXBU","Collector",1,244,"2016-06-06T16:42:15-07:00","4",2,"Stimuli/versionBstim.txt","Procedure/versionBproc.txt","Tetris",NA,"SPROUTS","","SPROUTS","OFF","NPLI_AdHoc_G",129,"seqrec","No","User","RGN Test","ON","No",2440,NA,NA,NA,NA,NA,NA,NA,NA
"AD4ALUT6LXXBU","Collector",1,245,"2016-06-06T16:42:19-07:00","4",2,"Stimuli/versionBstim.txt","Procedure/versionBproc.txt","Tetris",NA,"FATHER","","FATHER","OFF","NPLI_Unrel_G",175,"seqrec","No","User","RGN Test","ON","No",1510,NA,NA,NA,NA,NA,NA,NA,NA
"AD4ALUT6LXXBU","Collector",1,246,"2016-06-06T16:42:23-07:00","4",2,"Stimuli/versionBstim.txt","Procedure/versionBproc.txt","Tetris",NA,"SPIKE","","SPIKE","OFF","LI_Unrel_G",234,"seqrec","No","User","RGN Test","ON","Yes",1740,NA,NA,NA,NA,NA,NA,NA,NA
"AD4ALUT6LXXBU","Collector",1,247,"2016-06-06T16:42:27-07:00","4",2,"Stimuli/versionBstim.txt","Procedure/versionBproc.txt","Tetris",NA,"DOME","","DOME","OFF","LI_Unrel_G",235,"seqrec","No","User","RGN Test","ON","Yes",1420,NA,NA,NA,NA,NA,NA,NA,NA
"AD4ALUT6LXXBU","Collector",1,248,"2016-06-06T16:42:31-07:00","4",2,"Stimuli/versionBstim.txt","Procedure/versionBproc.txt","Tetris",NA,"BELLS","","BELLS","OFF","NPLI_AdHoc_G",153,"seqrec","No","User","RGN Test","ON","No",2020,NA,NA,NA,NA,NA,NA,NA,NA
"AD4ALUT6LXXBU","Collector",1,249,"2016-06-06T16:42:34-07:00","3",2,"Stimuli/versionBstim.txt","Procedure/versionBproc.txt","Tetris",NA,"ART","","ART","OFF","NPCI_Unrel_G",211,"seqrec","No","User","RGN Test","ON","No",1140,NA,NA,NA,NA,NA,NA,NA,NA
"AD4ALUT6LXXBU","Collector",1,250,"2016-06-06T16:42:38-07:00","4",2,"Stimuli/versionBstim.txt","Procedure/versionBproc.txt","Tetris",NA,"WITCH","","WITCH","OFF","LI_AdHoc_G",255,"seqrec","No","User","RGN Test","ON","Yes",1960,NA,NA,NA,NA,NA,NA,NA,NA
"AD4ALUT6LXXBU","Collector",1,251,"2016-06-06T16:42:41-07:00","3",2,"Stimuli/versionBstim.txt","Procedure/versionBproc.txt","Tetris",NA,"LIMA BEANS","","LIMA BEANS","OFF","LI_Cat_G",226,"seqrec","No","User","RGN Test","ON","Yes",940,NA,NA,NA,NA,NA,NA,NA,NA
"AD4ALUT6LXXBU","Collector",1,252,"2016-06-06T16:42:45-07:00","4",2,"Stimuli/versionBstim.txt","Procedure/versionBproc.txt","Tetris",NA,"JUNGLE","","JUNGLE","OFF","NPLI_AdHoc_G",126,"seqrec","No","User","RGN Test","ON","No",1390,NA,NA,NA,NA,NA,NA,NA,NA
"AD4ALUT6LXXBU","Collector",1,253,"2016-06-06T16:42:49-07:00","4",2,"Stimuli/versionBstim.txt","Procedure/versionBproc.txt","Tetris",NA,"LEMON","","LEMON","OFF","NPCI_Cat_G",196,"seqrec","No","User","RGN Test","ON","No",1190,NA,NA,NA,NA,NA,NA,NA,NA
"AD4ALUT6LXXBU","Collector",1,254,"2016-06-06T16:42:52-07:00","3",2,"Stimuli/versionBstim.txt","Procedure/versionBproc.txt","Tetris",NA,"ASH","","ASH","OFF","LI_AdHoc_G",258,"seqrec","No","User","RGN Test","ON","Yes",1420,NA,NA,NA,NA,NA,NA,NA,NA
"AD4ALUT6LXXBU","Collector",1,255,"2016-06-06T16:42:56-07:00","4",2,"Stimuli/versionBstim.txt","Procedure/versionBproc.txt","Tetris",NA,"COAL","","COAL","OFF","CI_AdHoc_G",292,"seqrec","No","User","RGN Test","ON","No",1610,NA,NA,NA,NA,NA,NA,NA,NA
"AD4ALUT6LXXBU","Collector",1,256,"2016-06-06T16:42:59-07:00","3",2,"Stimuli/versionBstim.txt","Procedure/versionBproc.txt","Tetris",NA,"FIRE","","FIRE","OFF","LI_Unrel_G",251,"seqrec","No","User","RGN Test","ON","Yes",1760,NA,NA,NA,NA,NA,NA,NA,NA
"AD4ALUT6LXXBU","Collector",1,257,"2016-06-06T16:43:03-07:00","4",2,"Stimuli/versionBstim.txt","Procedure/versionBproc.txt","Tetris",NA,"MANHOLE","","MANHOLE","OFF","NPLI_Unrel_G",141,"seqrec","No","User","RGN Test","ON","No",1410,NA,NA,NA,NA,NA,NA,NA,NA
"AD4ALUT6LXXBU","Collector",1,258,"2016-06-06T16:43:06-07:00","3",2,"Stimuli/versionBstim.txt","Procedure/versionBproc.txt","Tetris",NA,"BABIES","","BABIES","OFF","NPLI_AdHoc_G",159,"seqrec","No","User","RGN Test","ON","No",1150,NA,NA,NA,NA,NA,NA,NA,NA
"AD4ALUT6LXXBU","Collector",1,259,"2016-06-06T16:43:10-07:00","4",2,"Stimuli/versionBstim.txt","Procedure/versionBproc.txt","Tetris",NA,"LENS","","LENS","OFF","CI_Unrel_G",291,"seqrec","No","User","RGN Test","ON","No",1310,NA,NA,NA,NA,NA,NA,NA,NA
"AD4ALUT6LXXBU","Collector",1,260,"2016-06-06T16:43:14-07:00","4",2,"Stimuli/versionBstim.txt","Procedure/versionBproc.txt","Tetris",NA,"ASPARAGUS","","ASPARAGUS","OFF","LI_Cat_G",223,"seqrec","No","User","RGN Test","ON","Yes",2180,NA,NA,NA,NA,NA,NA,NA,NA
"AD4ALUT6LXXBU","Collector",1,261,"2016-06-06T16:43:17-07:00","3",2,"Stimuli/versionBstim.txt","Procedure/versionBproc.txt","Tetris",NA,"HINGE","","HINGE","OFF","LI_Cat_G",271,"seqrec","No","User","RGN Test","ON","Yes",1220,NA,NA,NA,NA,NA,NA,NA,NA
"AD4ALUT6LXXBU","Collector",1,262,"2016-06-06T16:43:21-07:00","4",2,"Stimuli/versionBstim.txt","Procedure/versionBproc.txt","Tetris",NA,"BANANA","","BANANA","OFF","NPCI_Cat_G",193,"seqrec","No","User","RGN Test","ON","No",1650,NA,NA,NA,NA,NA,NA,NA,NA
"AD4ALUT6LXXBU","Collector",1,263,"2016-06-06T16:43:24-07:00","3",2,"Stimuli/versionBstim.txt","Procedure/versionBproc.txt","Tetris",NA,"EBONY","","EBONY","OFF","LI_AdHoc_G",261,"seqrec","No","User","RGN Test","ON","Yes",1520,NA,NA,NA,NA,NA,NA,NA,NA
"AD4ALUT6LXXBU","Collector",1,264,"2016-06-06T16:43:27-07:00","3",2,"Stimuli/versionBstim.txt","Procedure/versionBproc.txt","Tetris",NA,"RAISIN","","RAISIN","OFF","NPLI_Cat_G",149,"seqrec","No","User","RGN Test","ON","No",1490,NA,NA,NA,NA,NA,NA,NA,NA
"AD4ALUT6LXXBU","Collector",1,265,"2016-06-06T16:43:31-07:00","4",2,"Stimuli/versionBstim.txt","Procedure/versionBproc.txt","Tetris",NA,"PLUM","","PLUM","OFF","NPCI_Cat_G",195,"seqrec","No","User","RGN Test","ON","No",1450,NA,NA,NA,NA,NA,NA,NA,NA
"AD4ALUT6LXXBU","Collector",1,266,"2016-06-06T16:43:34-07:00","3",2,"Stimuli/versionBstim.txt","Procedure/versionBproc.txt","Tetris",NA,"BROCCOLI","","BROCCOLI","OFF","NPCI_AdHoc_G",185,"seqrec","No","User","RGN Test","ON","No",1520,NA,NA,NA,NA,NA,NA,NA,NA
"AD4ALUT6LXXBU","Collector",1,267,"2016-06-06T16:43:37-07:00","3",2,"Stimuli/versionBstim.txt","Procedure/versionBproc.txt","Tetris",NA,"PARTY","","PARTY","OFF","NPLI_AdHoc_G",158,"seqrec","No","User","RGN Test","ON","No",1570,NA,NA,NA,NA,NA,NA,NA,NA
"AD4ALUT6LXXBU","Collector",1,268,"2016-06-06T16:43:40-07:00","3",2,"Stimuli/versionBstim.txt","Procedure/versionBproc.txt","Tetris",NA,"PLIERS","","PLIERS","OFF","CI_Cat_G",300,"seqrec","No","User","RGN Test","ON","No",1120,NA,NA,NA,NA,NA,NA,NA,NA
"AD4ALUT6LXXBU","Collector",1,269,"2016-06-06T16:43:44-07:00","4",2,"Stimuli/versionBstim.txt","Procedure/versionBproc.txt","Tetris",NA,"LIMOUSINE","","LIMOUSINE","OFF","LI_AdHoc_G",256,"seqrec","No","User","RGN Test","ON","Yes",1570,NA,NA,NA,NA,NA,NA,NA,NA
"AD4ALUT6LXXBU","Collector",1,270,"2016-06-06T16:43:47-07:00","3",2,"Stimuli/versionBstim.txt","Procedure/versionBproc.txt","Tetris",NA,"BADGE","","BADGE","OFF","NPLI_Unrel_G",132,"seqrec","No","User","RGN Test","ON","No",1430,NA,NA,NA,NA,NA,NA,NA,NA
"AD4ALUT6LXXBU","Collector",1,271,"2016-06-06T16:43:50-07:00","3",2,"Stimuli/versionBstim.txt","Procedure/versionBproc.txt","Tetris",NA,"PEDAL","","PEDAL","OFF","NPCI_Unrel_G",191,"seqrec","No","User","RGN Test","ON","No",1150,NA,NA,NA,NA,NA,NA,NA,NA
"AD4ALUT6LXXBU","Collector",1,272,"2016-06-06T16:43:54-07:00","4",2,"Stimuli/versionBstim.txt","Procedure/versionBproc.txt","Tetris",NA,"NECTARINE","","NECTARINE","OFF","NPLI_Cat_G",150,"seqrec","No","User","RGN Test","ON","Yes",2600,NA,NA,NA,NA,NA,NA,NA,NA
"AD4ALUT6LXXBU","Collector",1,273,"2016-06-06T16:43:58-07:00","4",2,"Stimuli/versionBstim.txt","Procedure/versionBproc.txt","Tetris",NA,"EMERALD","","EMERALD","OFF","NPCI_AdHoc_G",183,"seqrec","No","User","RGN Test","ON","No",1690,NA,NA,NA,NA,NA,NA,NA,NA
"AD4ALUT6LXXBU","Collector",1,274,"2016-06-06T16:44:01-07:00","3",2,"Stimuli/versionBstim.txt","Procedure/versionBproc.txt","Tetris",NA,"EGGPLANT","","EGGPLANT","OFF","LI_Cat_G",231,"seqrec","No","User","RGN Test","ON","Yes",1530,NA,NA,NA,NA,NA,NA,NA,NA
"AD4ALUT6LXXBU","Collector",1,275,"2016-06-06T16:44:04-07:00","3",2,"Stimuli/versionBstim.txt","Procedure/versionBproc.txt","Tetris",NA,"LAVA","","LAVA","OFF","LI_AdHoc_G",218,"seqrec","No","User","RGN Test","ON","Yes",1190,NA,NA,NA,NA,NA,NA,NA,NA
"AD4ALUT6LXXBU","Collector",1,276,"2016-06-06T16:44:08-07:00","4",2,"Stimuli/versionBstim.txt","Procedure/versionBproc.txt","Tetris",NA,"YELL","","YELL","OFF","NPLI_AdHoc_G",152,"seqrec","No","User","RGN Test","ON","No",1620,NA,NA,NA,NA,NA,NA,NA,NA
"AD4ALUT6LXXBU","Collector",1,277,"2016-06-06T16:44:11-07:00","3",2,"Stimuli/versionBstim.txt","Procedure/versionBproc.txt","Tetris",NA,"WRECK","","WRECK","OFF","LI_Unrel_G",242,"seqrec","No","User","RGN Test","ON","Yes",1690,NA,NA,NA,NA,NA,NA,NA,NA
"AD4ALUT6LXXBU","Collector",1,278,"2016-06-06T16:44:15-07:00","4",2,"Stimuli/versionBstim.txt","Procedure/versionBproc.txt","Tetris",NA,"CLOCK","","CLOCK","OFF","NPLI_Unrel_G",172,"seqrec","No","User","RGN Test","ON","No",1510,NA,NA,NA,NA,NA,NA,NA,NA
"AD4ALUT6LXXBU","Collector",1,279,"2016-06-06T16:44:18-07:00","3",2,"Stimuli/versionBstim.txt","Procedure/versionBproc.txt","Tetris",NA,"FOX","","FOX","OFF","NPLI_Cat_G",170,"seqrec","No","User","RGN Test","ON","No",1270,NA,NA,NA,NA,NA,NA,NA,NA
"AD4ALUT6LXXBU","Collector",1,280,"2016-06-06T16:44:21-07:00","3",2,"Stimuli/versionBstim.txt","Procedure/versionBproc.txt","Tetris",NA,"TEE","","TEE","OFF","LI_Unrel_G",232,"seqrec","No","User","RGN Test","ON","Yes",1750,NA,NA,NA,NA,NA,NA,NA,NA
"AD4ALUT6LXXBU","Collector",1,281,"2016-06-06T16:44:24-07:00","3",2,"Stimuli/versionBstim.txt","Procedure/versionBproc.txt","Tetris",NA,"WEDGE","","WEDGE","OFF","LI_Cat_G",269,"seqrec","No","User","RGN Test","ON","Yes",1130,NA,NA,NA,NA,NA,NA,NA,NA
"AD4ALUT6LXXBU","Collector",1,282,"2016-06-06T16:44:28-07:00","4",2,"Stimuli/versionBstim.txt","Procedure/versionBproc.txt","Tetris",NA,"COAST","","COAST","OFF","NPCI_Unrel_G",208,"seqrec","No","User","RGN Test","ON","No",1730,NA,NA,NA,NA,NA,NA,NA,NA
"AD4ALUT6LXXBU","Collector",1,283,"2016-06-06T16:44:31-07:00","3",2,"Stimuli/versionBstim.txt","Procedure/versionBproc.txt","Tetris",NA,"STEREO","","STEREO","OFF","NPLI_AdHoc_G",160,"seqrec","No","User","RGN Test","ON","No",1170,NA,NA,NA,NA,NA,NA,NA,NA
"AD4ALUT6LXXBU","Collector",1,284,"2016-06-06T16:44:36-07:00","5",2,"Stimuli/versionBstim.txt","Procedure/versionBproc.txt","Tetris",NA,"WHITE","","WHITE","OFF","CI_Unrel_G",288,"seqrec","No","User","RGN Test","ON","No",3270,NA,NA,NA,NA,NA,NA,NA,NA
"AD4ALUT6LXXBU","Collector",1,285,"2016-06-06T16:44:40-07:00","4",2,"Stimuli/versionBstim.txt","Procedure/versionBproc.txt","Tetris",NA,"STRAWBERRY","","STRAWBERRY","OFF","NPLI_Cat_G",146,"seqrec","No","User","RGN Test","ON","No",1580,NA,NA,NA,NA,NA,NA,NA,NA
"AD4ALUT6LXXBU","Collector",1,286,"2016-06-06T16:44:49-07:00","9",2,"Stimuli/versionBstim.txt","Procedure/versionBproc.txt","Tetris",NA,"BOW","","BOW","OFF","NPCI_Unrel_G",188,"seqrec","No","User","RGN Test","ON","No",6420,NA,NA,NA,NA,NA,NA,NA,NA
"AD4ALUT6LXXBU","Collector",1,287,"2016-06-06T16:44:53-07:00","4",2,"Stimuli/versionBstim.txt","Procedure/versionBproc.txt","Tetris",NA,"ISLAND","","ISLAND","OFF","CI_Unrel_G",284,"seqrec","No","User","RGN Test","ON","No",1390,NA,NA,NA,NA,NA,NA,NA,NA
"AD4ALUT6LXXBU","Collector",1,288,"2016-06-06T16:44:56-07:00","3",2,"Stimuli/versionBstim.txt","Procedure/versionBproc.txt","Tetris",NA,"DONKEY","","DONKEY","OFF","NPLI_Cat_G",168,"seqrec","No","User","RGN Test","ON","No",1090,NA,NA,NA,NA,NA,NA,NA,NA
"AD4ALUT6LXXBU","Collector",1,289,"2016-06-06T16:44:59-07:00","3",2,"Stimuli/versionBstim.txt","Procedure/versionBproc.txt","Tetris",NA,"VISE","","VISE","OFF","LI_Cat_G",270,"seqrec","No","User","RGN Test","ON","Yes",1600,NA,NA,NA,NA,NA,NA,NA,NA
"AD4ALUT6LXXBU","Collector",1,290,"2016-06-06T16:45:03-07:00","4",2,"Stimuli/versionBstim.txt","Procedure/versionBproc.txt","Tetris",NA,"SCREWS","","SCREWS","OFF","LI_Cat_G",264,"seqrec","No","User","RGN Test","ON","Yes",1390,NA,NA,NA,NA,NA,NA,NA,NA
"AD4ALUT6LXXBU","Collector",1,291,"2016-06-06T16:45:06-07:00","3",2,"Stimuli/versionBstim.txt","Procedure/versionBproc.txt","Tetris",NA,"SAWHORSE","","SAWHORSE","OFF","LI_Cat_G",265,"seqrec","No","User","RGN Test","ON","Yes",1260,NA,NA,NA,NA,NA,NA,NA,NA
"AD4ALUT6LXXBU","Collector",1,292,"2016-06-06T16:45:09-07:00","3",2,"Stimuli/versionBstim.txt","Procedure/versionBproc.txt","Tetris",NA,"CRYPT","","CRYPT","OFF","NPLI_Unrel_G",135,"seqrec","No","User","RGN Test","ON","No",1630,NA,NA,NA,NA,NA,NA,NA,NA
"AD4ALUT6LXXBU","Collector",1,293,"2016-06-06T16:45:13-07:00","4",2,"Stimuli/versionBstim.txt","Procedure/versionBproc.txt","Tetris",NA,"WATER","","WATER","OFF","CI_AdHoc_G",273,"seqrec","No","User","RGN Test","ON","No",1670,NA,NA,NA,NA,NA,NA,NA,NA
"AD4ALUT6LXXBU","Collector",1,294,"2016-06-06T16:45:17-07:00","4",2,"Stimuli/versionBstim.txt","Procedure/versionBproc.txt","Tetris",NA,"GRASS","","GRASS","OFF","NPCI_AdHoc_G",182,"seqrec","No","User","RGN Test","ON","No",1650,NA,NA,NA,NA,NA,NA,NA,NA
"AD4ALUT6LXXBU","Collector",1,295,"2016-06-06T16:45:20-07:00","3",2,"Stimuli/versionBstim.txt","Procedure/versionBproc.txt","Tetris",NA,"LATHE","","LATHE","OFF","LI_Cat_G",266,"seqrec","No","User","RGN Test","ON","Yes",1470,NA,NA,NA,NA,NA,NA,NA,NA
"AD4ALUT6LXXBU","Collector",1,296,"2016-06-06T16:45:23-07:00","3",2,"Stimuli/versionBstim.txt","Procedure/versionBproc.txt","Tetris",NA,"HOOK","","HOOK","OFF","NPLI_Unrel_G",134,"seqrec","No","User","RGN Test","ON","No",1470,NA,NA,NA,NA,NA,NA,NA,NA
"AD4ALUT6LXXBU","Collector",1,297,"2016-06-06T16:45:27-07:00","4",2,"Stimuli/versionBstim.txt","Procedure/versionBproc.txt","Tetris",NA,"REPTILE","","REPTILE","OFF","LI_Unrel_G",241,"seqrec","No","User","RGN Test","ON","Yes",1520,NA,NA,NA,NA,NA,NA,NA,NA
"AD4ALUT6LXXBU","Collector",1,298,"2016-06-06T16:45:31-07:00","4",2,"Stimuli/versionBstim.txt","Procedure/versionBproc.txt","Tetris",NA,"TRUMPET","","TRUMPET","OFF","NPLI_AdHoc_G",155,"seqrec","No","User","RGN Test","ON","No",1850,NA,NA,NA,NA,NA,NA,NA,NA
"AD4ALUT6LXXBU","Collector",1,299,"2016-06-06T16:45:34-07:00","3",2,"Stimuli/versionBstim.txt","Procedure/versionBproc.txt","Tetris",NA,"PEA","","PEA","OFF","CI_Cat_G",277,"seqrec","No","User","RGN Test","ON","No",1490,NA,NA,NA,NA,NA,NA,NA,NA
"AD4ALUT6LXXBU","Collector",1,300,"2016-06-06T16:45:37-07:00","3",2,"Stimuli/versionBstim.txt","Procedure/versionBproc.txt","Tetris",NA,"CAGE","","CAGE","OFF","NPCI_Unrel_G",207,"seqrec","No","User","RGN Test","ON","No",1690,NA,NA,NA,NA,NA,NA,NA,NA
"AD4ALUT6LXXBU","Collector",1,301,"2016-06-06T16:45:41-07:00","4",2,"Stimuli/versionBstim.txt","Procedure/versionBproc.txt","Tetris",NA,"CREAM","","CREAM","OFF","LI_AdHoc_G",221,"seqrec","No","User","RGN Test","ON","Yes",1580,NA,NA,NA,NA,NA,NA,NA,NA
"AD4ALUT6LXXBU","Collector",1,302,"2016-06-06T16:45:46-07:00","5",2,"Stimuli/versionBstim.txt","Procedure/versionBproc.txt","Tetris",NA,"YARD","","YARD","OFF","LI_Unrel_G",237,"seqrec","No","User","RGN Test","ON","No",3490,NA,NA,NA,NA,NA,NA,NA,NA
"AD4ALUT6LXXBU","Collector",1,303,"2016-06-06T16:45:50-07:00","4",2,"Stimuli/versionBstim.txt","Procedure/versionBproc.txt","Tetris",NA,"SCREWDRIVER","","SCREWDRIVER","OFF","CI_Cat_G",298,"seqrec","No","User","RGN Test","ON","No",2390,NA,NA,NA,NA,NA,NA,NA,NA
"AD4ALUT6LXXBU","Collector",1,304,"2016-06-06T16:45:53-07:00","3",2,"Stimuli/versionBstim.txt","Procedure/versionBproc.txt","Tetris",NA,"BOMB","","BOMB","OFF","NPLI_AdHoc_G",161,"seqrec","No","User","RGN Test","ON","No",1100,NA,NA,NA,NA,NA,NA,NA,NA
"AD4ALUT6LXXBU","Collector",1,305,"2016-06-06T16:45:57-07:00","4",2,"Stimuli/versionBstim.txt","Procedure/versionBproc.txt","Tetris",NA,"MILK","","MILK","OFF","CI_AdHoc_G",276,"seqrec","No","User","RGN Test","ON","No",1190,NA,NA,NA,NA,NA,NA,NA,NA
"AD4ALUT6LXXBU","Collector",1,306,"2016-06-06T16:46:00-07:00","3",2,"Stimuli/versionBstim.txt","Procedure/versionBproc.txt","Tetris",NA,"MOVIE","","MOVIE","OFF","NPLI_Unrel_G",179,"seqrec","No","User","RGN Test","ON","No",1190,NA,NA,NA,NA,NA,NA,NA,NA
"AD4ALUT6LXXBU","Collector",1,307,"2016-06-06T16:46:04-07:00","4",2,"Stimuli/versionBstim.txt","Procedure/versionBproc.txt","Tetris",NA,"SANDER","","SANDER","OFF","LI_Cat_G",268,"seqrec","No","User","RGN Test","ON","Yes",2270,NA,NA,NA,NA,NA,NA,NA,NA
"AD4ALUT6LXXBU","Collector",1,308,"2016-06-06T16:46:07-07:00","3",2,"Stimuli/versionBstim.txt","Procedure/versionBproc.txt","Tetris",NA,"INSECT","","INSECT","OFF","NPLI_Unrel_G",137,"seqrec","No","User","RGN Test","ON","No",1660,NA,NA,NA,NA,NA,NA,NA,NA
"AD4ALUT6LXXBU","Collector",1,309,"2016-06-06T16:46:12-07:00","5",2,"Stimuli/versionBstim.txt","Procedure/versionBproc.txt","Tetris",NA,"SNAKE","","SNAKE","OFF","NPLI_AdHoc_G",128,"seqrec","No","User","RGN Test","ON","No",2500,NA,NA,NA,NA,NA,NA,NA,NA
"AD4ALUT6LXXBU","Collector",1,310,"2016-06-06T16:46:15-07:00","3",2,"Stimuli/versionBstim.txt","Procedure/versionBproc.txt","Tetris",NA,"AIRPORT","","AIRPORT","OFF","LI_Unrel_G",247,"seqrec","No","User","RGN Test","ON","Yes",1630,NA,NA,NA,NA,NA,NA,NA,NA
"AD4ALUT6LXXBU","Collector",1,311,"2016-06-06T16:46:19-07:00","4",2,"Stimuli/versionBstim.txt","Procedure/versionBproc.txt","Tetris",NA,"FUR","","FUR","OFF","NPCI_Unrel_G",210,"seqrec","No","User","RGN Test","ON","No",1540,NA,NA,NA,NA,NA,NA,NA,NA
"AD4ALUT6LXXBU","Collector",1,312,"2016-06-06T16:46:22-07:00","3",2,"Stimuli/versionBstim.txt","Procedure/versionBproc.txt","Tetris",NA,"LICORICE","","LICORICE","OFF","LI_AdHoc_G",253,"seqrec","No","User","RGN Test","ON","Yes",1510,NA,NA,NA,NA,NA,NA,NA,NA
"AD4ALUT6LXXBU","Collector",1,313,"2016-06-06T16:46:26-07:00","4",2,"Stimuli/versionBstim.txt","Procedure/versionBproc.txt","Tetris",NA,"JACKHAMMER","","JACKHAMMER","OFF","NPCI_AdHoc_G",197,"seqrec","No","User","RGN Test","ON","No",1840,NA,NA,NA,NA,NA,NA,NA,NA
"AD4ALUT6LXXBU","Collector",1,314,"2016-06-06T16:46:29-07:00","3",2,"Stimuli/versionBstim.txt","Procedure/versionBproc.txt","Tetris",NA,"WRENCH","","WRENCH","OFF","LI_Cat_G",263,"seqrec","No","User","RGN Test","ON","Yes",1510,NA,NA,NA,NA,NA,NA,NA,NA
"AD4ALUT6LXXBU","Collector",1,315,"2016-06-06T16:46:32-07:00","3",2,"Stimuli/versionBstim.txt","Procedure/versionBproc.txt","Tetris",NA,"MOSS","","MOSS","OFF","NPLI_AdHoc_G",124,"seqrec","No","User","RGN Test","ON","No",1590,NA,NA,NA,NA,NA,NA,NA,NA
"AD4ALUT6LXXBU","Collector",1,316,"2016-06-06T16:46:36-07:00","4",2,"Stimuli/versionBstim.txt","Procedure/versionBproc.txt","Tetris",NA,"COFFEE","","COFFEE","OFF","CI_AdHoc_G",272,"seqrec","No","User","RGN Test","ON","No",1250,NA,NA,NA,NA,NA,NA,NA,NA
"AD4ALUT6LXXBU","Collector",1,317,"2016-06-06T16:46:40-07:00","4",2,"Stimuli/versionBstim.txt","Procedure/versionBproc.txt","Tetris",NA,"COW","","COW","OFF","NPCI_Cat_G",203,"seqrec","No","User","RGN Test","ON","No",1930,NA,NA,NA,NA,NA,NA,NA,NA
"AD4ALUT6LXXBU","Collector",1,318,"2016-06-06T16:46:43-07:00","3",2,"Stimuli/versionBstim.txt","Procedure/versionBproc.txt","Tetris",NA,"PEPPERS","","PEPPERS","OFF","LI_Cat_G",229,"seqrec","No","User","RGN Test","ON","Yes",1570,NA,NA,NA,NA,NA,NA,NA,NA
"AD4ALUT6LXXBU","Collector",1,319,"2016-06-06T16:46:48-07:00","5",2,"Stimuli/versionBstim.txt","Procedure/versionBproc.txt","Tetris",NA,"TOWN","","TOWN","OFF","NPCI_Unrel_G",187,"seqrec","No","User","RGN Test","ON","No",1240,NA,NA,NA,NA,NA,NA,NA,NA
"AD4ALUT6LXXBU","Collector",1,320,"2016-06-06T16:46:53-07:00","5",2,"Stimuli/versionBstim.txt","Procedure/versionBproc.txt","Tetris",NA,"GARAGE","","GARAGE","OFF","CI_Unrel_G",285,"seqrec","No","User","RGN Test","ON","No",2140,NA,NA,NA,NA,NA,NA,NA,NA
"AD4ALUT6LXXBU","Collector",1,321,"2016-06-06T16:46:57-07:00","4",2,"Stimuli/versionBstim.txt","Procedure/versionBproc.txt","Tetris",NA,"n/a","n/a","n/a","n/a","n/a",0,"Instruct","N/A","User","Click the button below to continue.","OFF","",1880,NA,NA,NA,NA,NA,NA,NA,NA
"AD4ALUT6LXXBU","Collector",1,322,"2016-06-06T16:47:12-07:00","15",2,"Stimuli/versionBstim.txt","Procedure/versionBproc.txt","Tetris",NA,"n/a","n/a","n/a","n/a","n/a",0,"Instruct","N/A","User","You again will be presented with 6 lists of words, each containing 20 words, but now you will complete a recall memory test following each list. After each list is presented, you will type in the words you saw on that list into a dialog box. You will have 1 minute to recall each list. The computer will prompt you when your time is up. Click the button below to begin the first list.","OFF","",13650,NA,NA,NA,NA,NA,NA,NA,NA
"AD4ALUT6LXXBU","Collector",1,323,"2016-06-06T16:47:17-07:00","5",2,"Stimuli/versionBstim.txt","Procedure/versionBproc.txt","Tetris",NA,"KISS","","KISS","OFF","Unrel_Recall_L1",312,"Study","No","3","Unrel_Recall_L1","ON","",3000,NA,NA,NA,NA,NA,NA,NA,NA
"AD4ALUT6LXXBU","Collector",1,324,"2016-06-06T16:47:22-07:00","5",2,"Stimuli/versionBstim.txt","Procedure/versionBproc.txt","Tetris",NA,"WRAP","","WRAP","OFF","Unrel_Recall_L1",302,"Study","No","3","Unrel_Recall_L1","ON","",3000,NA,NA,NA,NA,NA,NA,NA,NA
"AD4ALUT6LXXBU","Collector",1,325,"2016-06-06T16:47:27-07:00","5",2,"Stimuli/versionBstim.txt","Procedure/versionBproc.txt","Tetris",NA,"MARSH","","MARSH","OFF","Unrel_Recall_L1",304,"Study","No","3","Unrel_Recall_L1","ON","",3000,NA,NA,NA,NA,NA,NA,NA,NA
"AD4ALUT6LXXBU","Collector",1,326,"2016-06-06T16:47:32-07:00","5",2,"Stimuli/versionBstim.txt","Procedure/versionBproc.txt","Tetris",NA,"FLURRY","","FLURRY","OFF","Unrel_Recall_L1",307,"Study","No","3","Unrel_Recall_L1","ON","",3000,NA,NA,NA,NA,NA,NA,NA,NA
"AD4ALUT6LXXBU","Collector",1,327,"2016-06-06T16:47:37-07:00","5",2,"Stimuli/versionBstim.txt","Procedure/versionBproc.txt","Tetris",NA,"LANCE","","LANCE","OFF","Unrel_Recall_L1",316,"Study","No","3","Unrel_Recall_L1","ON","",3000,NA,NA,NA,NA,NA,NA,NA,NA
"AD4ALUT6LXXBU","Collector",1,328,"2016-06-06T16:47:42-07:00","5",2,"Stimuli/versionBstim.txt","Procedure/versionBproc.txt","Tetris",NA,"AVENUE","","AVENUE","OFF","Unrel_Recall_L1",305,"Study","No","3","Unrel_Recall_L1","ON","",3000,NA,NA,NA,NA,NA,NA,NA,NA
"AD4ALUT6LXXBU","Collector",1,329,"2016-06-06T16:47:47-07:00","5",2,"Stimuli/versionBstim.txt","Procedure/versionBproc.txt","Tetris",NA,"JOKE","","JOKE","OFF","Unrel_Recall_L1",306,"Study","No","3","Unrel_Recall_L1","ON","",3000,NA,NA,NA,NA,NA,NA,NA,NA
"AD4ALUT6LXXBU","Collector",1,330,"2016-06-06T16:47:51-07:00","4",2,"Stimuli/versionBstim.txt","Procedure/versionBproc.txt","Tetris",NA,"BLAZE","","BLAZE","OFF","Unrel_Recall_L1",319,"Study","No","3","Unrel_Recall_L1","ON","",3000,NA,NA,NA,NA,NA,NA,NA,NA
"AD4ALUT6LXXBU","Collector",1,331,"2016-06-06T16:47:56-07:00","5",2,"Stimuli/versionBstim.txt","Procedure/versionBproc.txt","Tetris",NA,"DETOUR","","DETOUR","OFF","Unrel_Recall_L1",303,"Study","No","3","Unrel_Recall_L1","ON","",3000,NA,NA,NA,NA,NA,NA,NA,NA
"AD4ALUT6LXXBU","Collector",1,332,"2016-06-06T16:48:01-07:00","5",2,"Stimuli/versionBstim.txt","Procedure/versionBproc.txt","Tetris",NA,"JAR","","JAR","OFF","Unrel_Recall_L1",311,"Study","No","3","Unrel_Recall_L1","ON","",3000,NA,NA,NA,NA,NA,NA,NA,NA
"AD4ALUT6LXXBU","Collector",1,333,"2016-06-06T16:48:09-07:00","8",2,"Stimuli/versionBstim.txt","Procedure/versionBproc.txt","Tetris",NA,"CANYON","","CANYON","OFF","Unrel_Recall_L1",313,"Study","No","3","Unrel_Recall_L1","ON","",3000,NA,NA,NA,NA,NA,NA,NA,NA
"AD4ALUT6LXXBU","Collector",1,334,"2016-06-06T16:48:14-07:00","5",2,"Stimuli/versionBstim.txt","Procedure/versionBproc.txt","Tetris",NA,"DWARF","","DWARF","OFF","Unrel_Recall_L1",317,"Study","No","3","Unrel_Recall_L1","ON","",3000,NA,NA,NA,NA,NA,NA,NA,NA
"AD4ALUT6LXXBU","Collector",1,335,"2016-06-06T16:48:19-07:00","5",2,"Stimuli/versionBstim.txt","Procedure/versionBproc.txt","Tetris",NA,"GIN","","GIN","OFF","Unrel_Recall_L1",318,"Study","No","3","Unrel_Recall_L1","ON","",3000,NA,NA,NA,NA,NA,NA,NA,NA
"AD4ALUT6LXXBU","Collector",1,336,"2016-06-06T16:48:24-07:00","5",2,"Stimuli/versionBstim.txt","Procedure/versionBproc.txt","Tetris",NA,"WINNER","","WINNER","OFF","Unrel_Recall_L1",321,"Study","No","3","Unrel_Recall_L1","ON","",3000,NA,NA,NA,NA,NA,NA,NA,NA
"AD4ALUT6LXXBU","Collector",1,337,"2016-06-06T16:48:29-07:00","5",2,"Stimuli/versionBstim.txt","Procedure/versionBproc.txt","Tetris",NA,"CELLOPHANE","","CELLOPHANE","OFF","Unrel_Recall_L1",308,"Study","No","3","Unrel_Recall_L1","ON","",3000,NA,NA,NA,NA,NA,NA,NA,NA
"AD4ALUT6LXXBU","Collector",1,338,"2016-06-06T16:48:34-07:00","5",2,"Stimuli/versionBstim.txt","Procedure/versionBproc.txt","Tetris",NA,"CEREAL","","CEREAL","OFF","Unrel_Recall_L1",315,"Study","No","3","Unrel_Recall_L1","ON","",3000,NA,NA,NA,NA,NA,NA,NA,NA
"AD4ALUT6LXXBU","Collector",1,339,"2016-06-06T16:48:38-07:00","4",2,"Stimuli/versionBstim.txt","Procedure/versionBproc.txt","Tetris",NA,"GONG","","GONG","OFF","Unrel_Recall_L1",310,"Study","No","3","Unrel_Recall_L1","ON","",3000,NA,NA,NA,NA,NA,NA,NA,NA
"AD4ALUT6LXXBU","Collector",1,340,"2016-06-06T16:48:43-07:00","5",2,"Stimuli/versionBstim.txt","Procedure/versionBproc.txt","Tetris",NA,"WORKSHOP","","WORKSHOP","OFF","Unrel_Recall_L1",320,"Study","No","3","Unrel_Recall_L1","ON","",3000,NA,NA,NA,NA,NA,NA,NA,NA
"AD4ALUT6LXXBU","Collector",1,341,"2016-06-06T16:48:48-07:00","5",2,"Stimuli/versionBstim.txt","Procedure/versionBproc.txt","Tetris",NA,"FOSSIL","","FOSSIL","OFF","Unrel_Recall_L1",314,"Study","No","3","Unrel_Recall_L1","ON","",3000,NA,NA,NA,NA,NA,NA,NA,NA
"AD4ALUT6LXXBU","Collector",1,342,"2016-06-06T16:48:53-07:00","5",2,"Stimuli/versionBstim.txt","Procedure/versionBproc.txt","Tetris",NA,"WINCH","","WINCH","OFF","Unrel_Recall_L1",309,"Study","No","3","Unrel_Recall_L1","ON","",3000,NA,NA,NA,NA,NA,NA,NA,NA
"AD4ALUT6LXXBU","Collector",1,343,"2016-06-06T16:49:06-07:00","13",2,"Stimuli/versionBstim.txt","Procedure/versionBproc.txt","Tetris",NA,"n/a","n/a","n/a","n/a","n/a",0,"Instruct","N/A","User","Recall Instructions: Recall the words that you saw from memory by typing them into the dialog box on the next screen. You will have 1 minute. Click the button below to begin.","OFF","",10790,NA,NA,NA,NA,NA,NA,NA,NA
"AD4ALUT6LXXBU","Collector",1,344,"2016-06-06T16:50:08-07:00","62",2,"Stimuli/versionBstim.txt","Procedure/versionBproc.txt","Tetris",NA,"n/a","n/a","n/a","n/a","n/a",0,"freerecall","N/A","60","Recall now in the box. Spelling will not be counted against you. The computer will advance when your minute is up.","OFF","Marsh <br />  <br /> FLURRY <br />  <br /> AVENUE <br />  <br /> KISS <br />  <br /> ",60000,2750,47040,NA,NA,NA,NA,NA,NA
"AD4ALUT6LXXBU","Collector",1,345,"2016-06-06T16:50:14-07:00","6",2,"Stimuli/versionBstim.txt","Procedure/versionBproc.txt","Tetris",NA,"n/a","n/a","n/a","n/a","n/a",0,"Instruct","N/A","User","Click the button below for the next list.","OFF","",3080,NA,NA,NA,NA,NA,NA,NA,NA
"AD4ALUT6LXXBU","Collector",1,346,"2016-06-06T16:50:19-07:00","5",2,"Stimuli/versionBstim.txt","Procedure/versionBproc.txt","Tetris",NA,"MEDICINE","","MEDICINE","OFF","AdHoc_Recall_L2",327,"Study","No","3","AdHoc_Recall_L2","ON","",3000,NA,NA,NA,NA,NA,NA,NA,NA
"AD4ALUT6LXXBU","Collector",1,347,"2016-06-06T16:50:24-07:00","5",2,"Stimuli/versionBstim.txt","Procedure/versionBproc.txt","Tetris",NA,"MAT","","MAT","OFF","AdHoc_Recall_L2",324,"Study","No","3","AdHoc_Recall_L2","ON","",3000,NA,NA,NA,NA,NA,NA,NA,NA
"AD4ALUT6LXXBU","Collector",1,348,"2016-06-06T16:50:28-07:00","4",2,"Stimuli/versionBstim.txt","Procedure/versionBproc.txt","Tetris",NA,"DEODORANT","","DEODORANT","OFF","AdHoc_Recall_L2",331,"Study","No","3","AdHoc_Recall_L2","ON","",3000,NA,NA,NA,NA,NA,NA,NA,NA
"AD4ALUT6LXXBU","Collector",1,349,"2016-06-06T16:50:34-07:00","6",2,"Stimuli/versionBstim.txt","Procedure/versionBproc.txt","Tetris",NA,"BRUSH","","BRUSH","OFF","AdHoc_Recall_L2",329,"Study","No","3","AdHoc_Recall_L2","ON","",3000,NA,NA,NA,NA,NA,NA,NA,NA
"AD4ALUT6LXXBU","Collector",1,350,"2016-06-06T16:50:38-07:00","4",2,"Stimuli/versionBstim.txt","Procedure/versionBproc.txt","Tetris",NA,"COMB","","COMB","OFF","AdHoc_Recall_L2",328,"Study","No","3","AdHoc_Recall_L2","ON","",3000,NA,NA,NA,NA,NA,NA,NA,NA
"AD4ALUT6LXXBU","Collector",1,351,"2016-06-06T16:50:43-07:00","5",2,"Stimuli/versionBstim.txt","Procedure/versionBproc.txt","Tetris",NA,"FAUCET","","FAUCET","OFF","AdHoc_Recall_L2",326,"Study","No","3","AdHoc_Recall_L2","ON","",3000,NA,NA,NA,NA,NA,NA,NA,NA
"AD4ALUT6LXXBU","Collector",1,352,"2016-06-06T16:50:48-07:00","5",2,"Stimuli/versionBstim.txt","Procedure/versionBproc.txt","Tetris",NA,"TILE","","TILE","OFF","AdHoc_Recall_L2",325,"Study","No","3","AdHoc_Recall_L2","ON","",3000,NA,NA,NA,NA,NA,NA,NA,NA
"AD4ALUT6LXXBU","Collector",1,353,"2016-06-06T16:50:53-07:00","5",2,"Stimuli/versionBstim.txt","Procedure/versionBproc.txt","Tetris",NA,"TWEEZERS","","TWEEZERS","OFF","AdHoc_Recall_L2",338,"Study","No","3","AdHoc_Recall_L2","ON","",3000,NA,NA,NA,NA,NA,NA,NA,NA
"AD4ALUT6LXXBU","Collector",1,354,"2016-06-06T16:50:58-07:00","5",2,"Stimuli/versionBstim.txt","Procedure/versionBproc.txt","Tetris",NA,"SOAP","","SOAP","OFF","AdHoc_Recall_L2",322,"Study","No","3","AdHoc_Recall_L2","ON","",3000,NA,NA,NA,NA,NA,NA,NA,NA
"AD4ALUT6LXXBU","Collector",1,355,"2016-06-06T16:51:03-07:00","5",2,"Stimuli/versionBstim.txt","Procedure/versionBproc.txt","Tetris",NA,"CURLING IRON","","CURLING IRON","OFF","AdHoc_Recall_L2",332,"Study","No","3","AdHoc_Recall_L2","ON","",3000,NA,NA,NA,NA,NA,NA,NA,NA
"AD4ALUT6LXXBU","Collector",1,356,"2016-06-06T16:51:08-07:00","5",2,"Stimuli/versionBstim.txt","Procedure/versionBproc.txt","Tetris",NA,"LOTION","","LOTION","OFF","AdHoc_Recall_L2",330,"Study","No","3","AdHoc_Recall_L2","ON","",3000,NA,NA,NA,NA,NA,NA,NA,NA
"AD4ALUT6LXXBU","Collector",1,357,"2016-06-06T16:51:12-07:00","4",2,"Stimuli/versionBstim.txt","Procedure/versionBproc.txt","Tetris",NA,"SHAMPOO","","SHAMPOO","OFF","AdHoc_Recall_L2",334,"Study","No","3","AdHoc_Recall_L2","ON","",3000,NA,NA,NA,NA,NA,NA,NA,NA
"AD4ALUT6LXXBU","Collector",1,358,"2016-06-06T16:51:17-07:00","5",2,"Stimuli/versionBstim.txt","Procedure/versionBproc.txt","Tetris",NA,"MOUTHWASH","","MOUTHWASH","OFF","AdHoc_Recall_L2",336,"Study","No","3","AdHoc_Recall_L2","ON","",3000,NA,NA,NA,NA,NA,NA,NA,NA
"AD4ALUT6LXXBU","Collector",1,359,"2016-06-06T16:51:22-07:00","5",2,"Stimuli/versionBstim.txt","Procedure/versionBproc.txt","Tetris",NA,"HAIR DRYER","","HAIR DRYER","OFF","AdHoc_Recall_L2",339,"Study","No","3","AdHoc_Recall_L2","ON","",3000,NA,NA,NA,NA,NA,NA,NA,NA
"AD4ALUT6LXXBU","Collector",1,360,"2016-06-06T16:51:27-07:00","5",2,"Stimuli/versionBstim.txt","Procedure/versionBproc.txt","Tetris",NA,"SCALE","","SCALE","OFF","AdHoc_Recall_L2",323,"Study","No","3","AdHoc_Recall_L2","ON","",3000,NA,NA,NA,NA,NA,NA,NA,NA
"AD4ALUT6LXXBU","Collector",1,361,"2016-06-06T16:51:32-07:00","5",2,"Stimuli/versionBstim.txt","Procedure/versionBproc.txt","Tetris",NA,"SHAVER","","SHAVER","OFF","AdHoc_Recall_L2",333,"Study","No","3","AdHoc_Recall_L2","ON","",3000,NA,NA,NA,NA,NA,NA,NA,NA
"AD4ALUT6LXXBU","Collector",1,362,"2016-06-06T16:51:36-07:00","4",2,"Stimuli/versionBstim.txt","Procedure/versionBproc.txt","Tetris",NA,"CANDLE","","CANDLE","OFF","AdHoc_Recall_L2",341,"Study","No","3","AdHoc_Recall_L2","ON","",3000,NA,NA,NA,NA,NA,NA,NA,NA
"AD4ALUT6LXXBU","Collector",1,363,"2016-06-06T16:51:41-07:00","5",2,"Stimuli/versionBstim.txt","Procedure/versionBproc.txt","Tetris",NA,"PLUNGER","","PLUNGER","OFF","AdHoc_Recall_L2",335,"Study","No","3","AdHoc_Recall_L2","ON","",3000,NA,NA,NA,NA,NA,NA,NA,NA
"AD4ALUT6LXXBU","Collector",1,364,"2016-06-06T16:51:46-07:00","5",2,"Stimuli/versionBstim.txt","Procedure/versionBproc.txt","Tetris",NA,"VANITY","","VANITY","OFF","AdHoc_Recall_L2",337,"Study","No","3","AdHoc_Recall_L2","ON","",3000,NA,NA,NA,NA,NA,NA,NA,NA
"AD4ALUT6LXXBU","Collector",1,365,"2016-06-06T16:51:51-07:00","5",2,"Stimuli/versionBstim.txt","Procedure/versionBproc.txt","Tetris",NA,"LOOFAH","","LOOFAH","OFF","AdHoc_Recall_L2",340,"Study","No","3","AdHoc_Recall_L2","ON","",3000,NA,NA,NA,NA,NA,NA,NA,NA
"AD4ALUT6LXXBU","Collector",1,366,"2016-06-06T16:51:57-07:00","6",2,"Stimuli/versionBstim.txt","Procedure/versionBproc.txt","Tetris",NA,"n/a","n/a","n/a","n/a","n/a",0,"Instruct","N/A","User","Recall Instructions: Recall the words that you saw from memory by typing them into the dialog box on the next screen. You will have 1 minute. Click the button below to begin.","OFF","",3890,NA,NA,NA,NA,NA,NA,NA,NA
"AD4ALUT6LXXBU","Collector",1,367,"2016-06-06T16:52:59-07:00","62",2,"Stimuli/versionBstim.txt","Procedure/versionBproc.txt","Tetris",NA,"n/a","n/a","n/a","n/a","n/a",0,"freerecall","N/A","60","Recall now in the box. Spelling will not be counted against you. The computer will advance when your minute is up.","OFF","MEDICINE <br />  <br /> MAT <br />  <br /> MOUTHWASH <br />  <br /> SHAVER <br />  <br /> DEODORANT <br />  <br /> SHAMPOO <br />  <br /> COMB <br />  <br /> BRUSH <br />  <br /> LOOFAH <br />  <br /> ",60000,1380,42810,NA,NA,NA,NA,NA,NA
"AD4ALUT6LXXBU","Collector",1,368,"2016-06-06T16:53:03-07:00","4",2,"Stimuli/versionBstim.txt","Procedure/versionBproc.txt","Tetris",NA,"n/a","n/a","n/a","n/a","n/a",0,"Instruct","N/A","User","Click the button below for the next list.","OFF","",1750,NA,NA,NA,NA,NA,NA,NA,NA
"AD4ALUT6LXXBU","Collector",1,369,"2016-06-06T16:53:10-07:00","7",2,"Stimuli/versionBstim.txt","Procedure/versionBproc.txt","Tetris",NA,"WEIGHTS","","WEIGHTS","OFF","AdHoc_Recall_L3",346,"Study","No","3","AdHoc_Recall_L3","ON","",3000,NA,NA,NA,NA,NA,NA,NA,NA
"AD4ALUT6LXXBU","Collector",1,370,"2016-06-06T16:53:15-07:00","5",2,"Stimuli/versionBstim.txt","Procedure/versionBproc.txt","Tetris",NA,"CAFETERIA","","CAFETERIA","OFF","AdHoc_Recall_L3",348,"Study","No","3","AdHoc_Recall_L3","ON","",3000,NA,NA,NA,NA,NA,NA,NA,NA
"AD4ALUT6LXXBU","Collector",1,371,"2016-06-06T16:53:20-07:00","5",2,"Stimuli/versionBstim.txt","Procedure/versionBproc.txt","Tetris",NA,"SHACKLE","","SHACKLE","OFF","AdHoc_Recall_L3",354,"Study","No","3","AdHoc_Recall_L3","ON","",3000,NA,NA,NA,NA,NA,NA,NA,NA
"AD4ALUT6LXXBU","Collector",1,372,"2016-06-06T16:53:24-07:00","4",2,"Stimuli/versionBstim.txt","Procedure/versionBproc.txt","Tetris",NA,"NEEDLE","","NEEDLE","OFF","AdHoc_Recall_L3",359,"Study","No","3","AdHoc_Recall_L3","ON","",3000,NA,NA,NA,NA,NA,NA,NA,NA
"AD4ALUT6LXXBU","Collector",1,373,"2016-06-06T16:53:30-07:00","6",2,"Stimuli/versionBstim.txt","Procedure/versionBproc.txt","Tetris",NA,"INMATE","","INMATE","OFF","AdHoc_Recall_L3",356,"Study","No","3","AdHoc_Recall_L3","ON","",3000,NA,NA,NA,NA,NA,NA,NA,NA
"AD4ALUT6LXXBU","Collector",1,374,"2016-06-06T16:53:35-07:00","5",2,"Stimuli/versionBstim.txt","Procedure/versionBproc.txt","Tetris",NA,"TOWER","","TOWER","OFF","AdHoc_Recall_L3",351,"Study","No","3","AdHoc_Recall_L3","ON","",3000,NA,NA,NA,NA,NA,NA,NA,NA
"AD4ALUT6LXXBU","Collector",1,375,"2016-06-06T16:53:41-07:00","6",2,"Stimuli/versionBstim.txt","Procedure/versionBproc.txt","Tetris",NA,"FIGHTS","","FIGHTS","OFF","AdHoc_Recall_L3",355,"Study","No","3","AdHoc_Recall_L3","ON","",3000,NA,NA,NA,NA,NA,NA,NA,NA
"AD4ALUT6LXXBU","Collector",1,376,"2016-06-06T16:53:46-07:00","5",2,"Stimuli/versionBstim.txt","Procedure/versionBproc.txt","Tetris",NA,"FINGERPRINTS","","FINGERPRINTS","OFF","AdHoc_Recall_L3",345,"Study","No","3","AdHoc_Recall_L3","ON","",3000,NA,NA,NA,NA,NA,NA,NA,NA
"AD4ALUT6LXXBU","Collector",1,377,"2016-06-06T16:53:51-07:00","5",2,"Stimuli/versionBstim.txt","Procedure/versionBproc.txt","Tetris",NA,"BARS","","BARS","OFF","AdHoc_Recall_L3",344,"Study","No","3","AdHoc_Recall_L3","ON","",3000,NA,NA,NA,NA,NA,NA,NA,NA
"AD4ALUT6LXXBU","Collector",1,378,"2016-06-06T16:53:56-07:00","5",2,"Stimuli/versionBstim.txt","Procedure/versionBproc.txt","Tetris",NA,"ALARM","","ALARM","OFF","AdHoc_Recall_L3",352,"Study","No","3","AdHoc_Recall_L3","ON","",3000,NA,NA,NA,NA,NA,NA,NA,NA
"AD4ALUT6LXXBU","Collector",1,379,"2016-06-06T16:54:01-07:00","5",2,"Stimuli/versionBstim.txt","Procedure/versionBproc.txt","Tetris",NA,"BUNKBED","","BUNKBED","OFF","AdHoc_Recall_L3",347,"Study","No","3","AdHoc_Recall_L3","ON","",3000,NA,NA,NA,NA,NA,NA,NA,NA
"AD4ALUT6LXXBU","Collector",1,380,"2016-06-06T16:54:06-07:00","5",2,"Stimuli/versionBstim.txt","Procedure/versionBproc.txt","Tetris",NA,"CHAIN","","CHAIN","OFF","AdHoc_Recall_L3",353,"Study","No","3","AdHoc_Recall_L3","ON","",3000,NA,NA,NA,NA,NA,NA,NA,NA
"AD4ALUT6LXXBU","Collector",1,381,"2016-06-06T16:54:11-07:00","5",2,"Stimuli/versionBstim.txt","Procedure/versionBproc.txt","Tetris",NA,"GUARD","","GUARD","OFF","AdHoc_Recall_L3",349,"Study","No","3","AdHoc_Recall_L3","ON","",3000,NA,NA,NA,NA,NA,NA,NA,NA
"AD4ALUT6LXXBU","Collector",1,382,"2016-06-06T16:54:16-07:00","5",2,"Stimuli/versionBstim.txt","Procedure/versionBproc.txt","Tetris",NA,"CHAINLINK","","CHAINLINK","OFF","AdHoc_Recall_L3",350,"Study","No","3","AdHoc_Recall_L3","ON","",3000,NA,NA,NA,NA,NA,NA,NA,NA
"AD4ALUT6LXXBU","Collector",1,383,"2016-06-06T16:54:21-07:00","5",2,"Stimuli/versionBstim.txt","Procedure/versionBproc.txt","Tetris",NA,"CELL","","CELL","OFF","AdHoc_Recall_L3",343,"Study","No","3","AdHoc_Recall_L3","ON","",3000,NA,NA,NA,NA,NA,NA,NA,NA
