"X.Username","X.ExperimentName","X.Session","X.Trial","X.Date","X.TimeDif","X.Condition.Number","X.Stimuli.File","X.Order.File","X.Condition.Description","X.Condition.Notes","Stimuli.Target","Stimuli.Cue","Stimuli.Answer","Stimuli.Shuffle","Stimuli.Stimuli.Notes","Procedure.Item","Procedure.Trial.Type","Procedure.Post.Trial","Procedure.Timing","Procedure.Procedure.Notes","Procedure.Shuffle","Response.Response1","Response.RT","Response.RTkey","Response.RTlast","Response.strictAcc","Response.lenientAcc","Response.Accuracy","Response.JOL","Response.postRT","Response.postRTkey"
"A2C39KTRMOM1XZ","Collector",1,1,"2016-06-06T05:45:12-07:00","-",2,"Stimuli/versionBstim.txt","Procedure/versionBproc.txt","Tetris",NA,"n/a","n/a","n/a","n/a","n/a",0,"Instruct","N/A","User","Click the button below for the first list.","Off","",4170,NA,NA,NA,NA,NA,NA,NA,NA
"A2C39KTRMOM1XZ","Collector",1,2,"2016-06-06T05:45:17-07:00","5",2,"Stimuli/versionBstim.txt","Procedure/versionBproc.txt","Tetris",NA,"TEARS","","TEARS","OFF","AdHoc_G_L1",6,"Study","No","3","AdHoc_G_L1","ON","",3000,NA,NA,NA,NA,NA,NA,NA,NA
"A2C39KTRMOM1XZ","Collector",1,3,"2016-06-06T05:45:21-07:00","4",2,"Stimuli/versionBstim.txt","Procedure/versionBproc.txt","Tetris",NA,"SOUP","","SOUP","OFF","AdHoc_G_L1",16,"Study","No","3","AdHoc_G_L1","ON","",3000,NA,NA,NA,NA,NA,NA,NA,NA
"A2C39KTRMOM1XZ","Collector",1,4,"2016-06-06T05:45:25-07:00","4",2,"Stimuli/versionBstim.txt","Procedure/versionBproc.txt","Tetris",NA,"LAVA","","LAVA","OFF","AdHoc_G_L1",15,"Study","No","3","AdHoc_G_L1","ON","",3000,NA,NA,NA,NA,NA,NA,NA,NA
"A2C39KTRMOM1XZ","Collector",1,5,"2016-06-06T05:45:30-07:00","5",2,"Stimuli/versionBstim.txt","Procedure/versionBproc.txt","Tetris",NA,"RIVER","","RIVER","OFF","AdHoc_G_L1",14,"Study","No","3","AdHoc_G_L1","ON","",3000,NA,NA,NA,NA,NA,NA,NA,NA
"A2C39KTRMOM1XZ","Collector",1,6,"2016-06-06T05:45:34-07:00","4",2,"Stimuli/versionBstim.txt","Procedure/versionBproc.txt","Tetris",NA,"SYRUP","","SYRUP","OFF","AdHoc_G_L1",20,"Study","No","3","AdHoc_G_L1","ON","",3000,NA,NA,NA,NA,NA,NA,NA,NA
"A2C39KTRMOM1XZ","Collector",1,7,"2016-06-06T05:45:38-07:00","4",2,"Stimuli/versionBstim.txt","Procedure/versionBproc.txt","Tetris",NA,"TEA","","TEA","OFF","AdHoc_G_L1",4,"Study","No","3","AdHoc_G_L1","ON","",3000,NA,NA,NA,NA,NA,NA,NA,NA
"A2C39KTRMOM1XZ","Collector",1,8,"2016-06-06T05:45:57-07:00","19",2,"Stimuli/versionBstim.txt","Procedure/versionBproc.txt","Tetris",NA,"BEER","","BEER","OFF","AdHoc_G_L1",8,"Study","No","3","AdHoc_G_L1","ON","",3000,NA,NA,NA,NA,NA,NA,NA,NA
"A2C39KTRMOM1XZ","Collector",1,9,"2016-06-06T05:46:02-07:00","5",2,"Stimuli/versionBstim.txt","Procedure/versionBproc.txt","Tetris",NA,"BLOOD","","BLOOD","OFF","AdHoc_G_L1",18,"Study","No","3","AdHoc_G_L1","ON","",3000,NA,NA,NA,NA,NA,NA,NA,NA
"A2C39KTRMOM1XZ","Collector",1,10,"2016-06-06T05:46:07-07:00","5",2,"Stimuli/versionBstim.txt","Procedure/versionBproc.txt","Tetris",NA,"WINE","","WINE","OFF","AdHoc_G_L1",9,"Study","No","3","AdHoc_G_L1","ON","",3000,NA,NA,NA,NA,NA,NA,NA,NA
"A2C39KTRMOM1XZ","Collector",1,11,"2016-06-06T05:46:12-07:00","5",2,"Stimuli/versionBstim.txt","Procedure/versionBproc.txt","Tetris",NA,"GASOLINE","","GASOLINE","OFF","AdHoc_G_L1",17,"Study","No","3","AdHoc_G_L1","ON","",3000,NA,NA,NA,NA,NA,NA,NA,NA
"A2C39KTRMOM1XZ","Collector",1,12,"2016-06-06T05:46:16-07:00","4",2,"Stimuli/versionBstim.txt","Procedure/versionBproc.txt","Tetris",NA,"LAKE","","LAKE","OFF","AdHoc_G_L1",13,"Study","No","3","AdHoc_G_L1","ON","",3000,NA,NA,NA,NA,NA,NA,NA,NA
"A2C39KTRMOM1XZ","Collector",1,13,"2016-06-06T05:46:21-07:00","5",2,"Stimuli/versionBstim.txt","Procedure/versionBproc.txt","Tetris",NA,"SODA","","SODA","OFF","AdHoc_G_L1",3,"Study","No","3","AdHoc_G_L1","ON","",3000,NA,NA,NA,NA,NA,NA,NA,NA
"A2C39KTRMOM1XZ","Collector",1,14,"2016-06-06T05:46:26-07:00","5",2,"Stimuli/versionBstim.txt","Procedure/versionBproc.txt","Tetris",NA,"OCEAN","","OCEAN","OFF","AdHoc_G_L1",12,"Study","No","3","AdHoc_G_L1","ON","",3000,NA,NA,NA,NA,NA,NA,NA,NA
"A2C39KTRMOM1XZ","Collector",1,15,"2016-06-06T05:46:31-07:00","5",2,"Stimuli/versionBstim.txt","Procedure/versionBproc.txt","Tetris",NA,"SWEAT","","SWEAT","OFF","AdHoc_G_L1",7,"Study","No","3","AdHoc_G_L1","ON","",3000,NA,NA,NA,NA,NA,NA,NA,NA
"A2C39KTRMOM1XZ","Collector",1,16,"2016-06-06T05:46:35-07:00","4",2,"Stimuli/versionBstim.txt","Procedure/versionBproc.txt","Tetris",NA,"MERCURY","","MERCURY","OFF","AdHoc_G_L1",5,"Study","No","3","AdHoc_G_L1","ON","",3000,NA,NA,NA,NA,NA,NA,NA,NA
"A2C39KTRMOM1XZ","Collector",1,17,"2016-06-06T05:46:39-07:00","4",2,"Stimuli/versionBstim.txt","Procedure/versionBproc.txt","Tetris",NA,"VINEGAR","","VINEGAR","OFF","AdHoc_G_L1",19,"Study","No","3","AdHoc_G_L1","ON","",3000,NA,NA,NA,NA,NA,NA,NA,NA
"A2C39KTRMOM1XZ","Collector",1,18,"2016-06-06T05:46:44-07:00","5",2,"Stimuli/versionBstim.txt","Procedure/versionBproc.txt","Tetris",NA,"CIDER","","CIDER","OFF","AdHoc_G_L1",2,"Study","No","3","AdHoc_G_L1","ON","",3000,NA,NA,NA,NA,NA,NA,NA,NA
"A2C39KTRMOM1XZ","Collector",1,19,"2016-06-06T05:46:48-07:00","4",2,"Stimuli/versionBstim.txt","Procedure/versionBproc.txt","Tetris",NA,"CREAM","","CREAM","OFF","AdHoc_G_L1",21,"Study","No","3","AdHoc_G_L1","ON","",3000,NA,NA,NA,NA,NA,NA,NA,NA
"A2C39KTRMOM1XZ","Collector",1,20,"2016-06-06T05:46:53-07:00","5",2,"Stimuli/versionBstim.txt","Procedure/versionBproc.txt","Tetris",NA,"HOT CHOCOLATE","","HOT CHOCOLATE","OFF","AdHoc_G_L1",11,"Study","No","3","AdHoc_G_L1","ON","",3000,NA,NA,NA,NA,NA,NA,NA,NA
"A2C39KTRMOM1XZ","Collector",1,21,"2016-06-06T05:46:58-07:00","5",2,"Stimuli/versionBstim.txt","Procedure/versionBproc.txt","Tetris",NA,"ALCOHOL","","ALCOHOL","OFF","AdHoc_G_L1",10,"Study","No","3","AdHoc_G_L1","ON","",3000,NA,NA,NA,NA,NA,NA,NA,NA
"A2C39KTRMOM1XZ","Collector",1,22,"2016-06-06T05:47:10-07:00","12",2,"Stimuli/versionBstim.txt","Procedure/versionBproc.txt","Tetris",NA,"n/a","n/a","n/a","n/a","n/a",0,"Instruct","N/A","User","Guess Instructions: 5 words related to the list you just saw were not presented. Try to guess these words by typing them into the dialog box on the next screen. You must guess at least one.","OFF","",10850,NA,NA,NA,NA,NA,NA,NA,NA
"A2C39KTRMOM1XZ","Collector",1,23,"2016-06-06T05:48:02-07:00","52",2,"Stimuli/versionBstim.txt","Procedure/versionBproc.txt","Tetris",NA,"n/a","n/a","n/a","n/a","n/a",0,"freerecall","N/A","User","Guess Below. You must make at least one guess. Click submit when you are finished.","OFF","coffee, river, oil, water,",49960,2710,44140,NA,NA,NA,NA,NA,NA
"A2C39KTRMOM1XZ","Collector",1,24,"2016-06-06T05:48:05-07:00","3",2,"Stimuli/versionBstim.txt","Procedure/versionBproc.txt","Tetris",NA,"n/a","n/a","n/a","n/a","n/a",0,"Instruct","N/A","User","Click the button below for the next list.","OFF","",1930,NA,NA,NA,NA,NA,NA,NA,NA
"A2C39KTRMOM1XZ","Collector",1,25,"2016-06-06T05:48:10-07:00","5",2,"Stimuli/versionBstim.txt","Procedure/versionBproc.txt","Tetris",NA,"KALE","","KALE","OFF","Cat_G_L2",36,"Study","No","3","Cat_G_L2","ON","",3000,NA,NA,NA,NA,NA,NA,NA,NA
"A2C39KTRMOM1XZ","Collector",1,26,"2016-06-06T05:48:16-07:00","6",2,"Stimuli/versionBstim.txt","Procedure/versionBproc.txt","Tetris",NA,"CORN","","CORN","OFF","Cat_G_L2",22,"Study","No","3","Cat_G_L2","ON","",3000,NA,NA,NA,NA,NA,NA,NA,NA
"A2C39KTRMOM1XZ","Collector",1,27,"2016-06-06T05:48:21-07:00","5",2,"Stimuli/versionBstim.txt","Procedure/versionBproc.txt","Tetris",NA,"TURNIP","","TURNIP","OFF","Cat_G_L2",35,"Study","No","3","Cat_G_L2","ON","",3000,NA,NA,NA,NA,NA,NA,NA,NA
"A2C39KTRMOM1XZ","Collector",1,28,"2016-06-06T05:48:26-07:00","5",2,"Stimuli/versionBstim.txt","Procedure/versionBproc.txt","Tetris",NA,"ZUCCHINI","","ZUCCHINI","OFF","Cat_G_L2",38,"Study","No","3","Cat_G_L2","ON","",3000,NA,NA,NA,NA,NA,NA,NA,NA
"A2C39KTRMOM1XZ","Collector",1,29,"2016-06-06T05:48:32-07:00","6",2,"Stimuli/versionBstim.txt","Procedure/versionBproc.txt","Tetris",NA,"CELERY","","CELERY","OFF","Cat_G_L2",26,"Study","No","3","Cat_G_L2","ON","",3000,NA,NA,NA,NA,NA,NA,NA,NA
"A2C39KTRMOM1XZ","Collector",1,30,"2016-06-06T05:48:37-07:00","5",2,"Stimuli/versionBstim.txt","Procedure/versionBproc.txt","Tetris",NA,"LETTUCE","","LETTUCE","OFF","Cat_G_L2",24,"Study","No","3","Cat_G_L2","ON","",3000,NA,NA,NA,NA,NA,NA,NA,NA
"A2C39KTRMOM1XZ","Collector",1,31,"2016-06-06T05:48:43-07:00","6",2,"Stimuli/versionBstim.txt","Procedure/versionBproc.txt","Tetris",NA,"POTATO","","POTATO","OFF","Cat_G_L2",23,"Study","No","3","Cat_G_L2","ON","",3000,NA,NA,NA,NA,NA,NA,NA,NA
"A2C39KTRMOM1XZ","Collector",1,32,"2016-06-06T05:48:48-07:00","5",2,"Stimuli/versionBstim.txt","Procedure/versionBproc.txt","Tetris",NA,"ONION","","ONION","OFF","Cat_G_L2",33,"Study","No","3","Cat_G_L2","ON","",3000,NA,NA,NA,NA,NA,NA,NA,NA
"A2C39KTRMOM1XZ","Collector",1,33,"2016-06-06T05:48:53-07:00","5",2,"Stimuli/versionBstim.txt","Procedure/versionBproc.txt","Tetris",NA,"BEETS","","BEETS","OFF","Cat_G_L2",30,"Study","No","3","Cat_G_L2","ON","",3000,NA,NA,NA,NA,NA,NA,NA,NA
"A2C39KTRMOM1XZ","Collector",1,34,"2016-06-06T05:48:58-07:00","5",2,"Stimuli/versionBstim.txt","Procedure/versionBproc.txt","Tetris",NA,"CAULIFLOWER","","CAULIFLOWER","OFF","Cat_G_L2",29,"Study","No","3","Cat_G_L2","ON","",3000,NA,NA,NA,NA,NA,NA,NA,NA
"A2C39KTRMOM1XZ","Collector",1,35,"2016-06-06T05:49:03-07:00","5",2,"Stimuli/versionBstim.txt","Procedure/versionBproc.txt","Tetris",NA,"CABBAGE","","CABBAGE","OFF","Cat_G_L2",27,"Study","No","3","Cat_G_L2","ON","",3000,NA,NA,NA,NA,NA,NA,NA,NA
"A2C39KTRMOM1XZ","Collector",1,36,"2016-06-06T05:49:08-07:00","5",2,"Stimuli/versionBstim.txt","Procedure/versionBproc.txt","Tetris",NA,"PEPPERS","","PEPPERS","OFF","Cat_G_L2",37,"Study","No","3","Cat_G_L2","ON","",3000,NA,NA,NA,NA,NA,NA,NA,NA
"A2C39KTRMOM1XZ","Collector",1,37,"2016-06-06T05:49:13-07:00","5",2,"Stimuli/versionBstim.txt","Procedure/versionBproc.txt","Tetris",NA,"EGGPLANT","","EGGPLANT","OFF","Cat_G_L2",41,"Study","No","3","Cat_G_L2","ON","",3000,NA,NA,NA,NA,NA,NA,NA,NA
"A2C39KTRMOM1XZ","Collector",1,38,"2016-06-06T05:49:17-07:00","4",2,"Stimuli/versionBstim.txt","Procedure/versionBproc.txt","Tetris",NA,"PUMPKIN","","PUMPKIN","OFF","Cat_G_L2",39,"Study","No","3","Cat_G_L2","ON","",3000,NA,NA,NA,NA,NA,NA,NA,NA
"A2C39KTRMOM1XZ","Collector",1,39,"2016-06-06T05:49:23-07:00","6",2,"Stimuli/versionBstim.txt","Procedure/versionBproc.txt","Tetris",NA,"SQUASH","","SQUASH","OFF","Cat_G_L2",32,"Study","No","3","Cat_G_L2","ON","",3000,NA,NA,NA,NA,NA,NA,NA,NA
"A2C39KTRMOM1XZ","Collector",1,40,"2016-06-06T05:49:27-07:00","4",2,"Stimuli/versionBstim.txt","Procedure/versionBproc.txt","Tetris",NA,"LIMA BEANS","","LIMA BEANS","OFF","Cat_G_L2",31,"Study","No","3","Cat_G_L2","ON","",3000,NA,NA,NA,NA,NA,NA,NA,NA
"A2C39KTRMOM1XZ","Collector",1,41,"2016-06-06T05:49:32-07:00","5",2,"Stimuli/versionBstim.txt","Procedure/versionBproc.txt","Tetris",NA,"OKRA","","OKRA","OFF","Cat_G_L2",40,"Study","No","3","Cat_G_L2","ON","",3000,NA,NA,NA,NA,NA,NA,NA,NA
"A2C39KTRMOM1XZ","Collector",1,42,"2016-06-06T05:49:40-07:00","8",2,"Stimuli/versionBstim.txt","Procedure/versionBproc.txt","Tetris",NA,"STRING BEANS","","STRING BEANS","OFF","Cat_G_L2",28,"Study","No","3","Cat_G_L2","ON","",3000,NA,NA,NA,NA,NA,NA,NA,NA
"A2C39KTRMOM1XZ","Collector",1,43,"2016-06-06T05:49:44-07:00","4",2,"Stimuli/versionBstim.txt","Procedure/versionBproc.txt","Tetris",NA,"RADISH","","RADISH","OFF","Cat_G_L2",34,"Study","No","3","Cat_G_L2","ON","",3000,NA,NA,NA,NA,NA,NA,NA,NA
"A2C39KTRMOM1XZ","Collector",1,44,"2016-06-06T05:49:49-07:00","5",2,"Stimuli/versionBstim.txt","Procedure/versionBproc.txt","Tetris",NA,"ASPARAGUS","","ASPARAGUS","OFF","Cat_G_L2",25,"Study","No","3","Cat_G_L2","ON","",3000,NA,NA,NA,NA,NA,NA,NA,NA
"A2C39KTRMOM1XZ","Collector",1,45,"2016-06-06T05:49:55-07:00","6",2,"Stimuli/versionBstim.txt","Procedure/versionBproc.txt","Tetris",NA,"n/a","n/a","n/a","n/a","n/a",0,"Instruct","N/A","User","Guess Instructions: 5 words related to the list you just saw were not presented. Try to guess these words by typing them into the dialog box on the next screen. You must guess at least one.","OFF","",4070,NA,NA,NA,NA,NA,NA,NA,NA
"A2C39KTRMOM1XZ","Collector",1,46,"2016-06-06T05:50:46-07:00","51",2,"Stimuli/versionBstim.txt","Procedure/versionBproc.txt","Tetris",NA,"n/a","n/a","n/a","n/a","n/a",0,"freerecall","N/A","User","Guess Below. You must make at least one guess. Click submit when you are finished.","OFF","Lettuce, green beans, carrots, tomatoes,spinach",49270,3120,46490,NA,NA,NA,NA,NA,NA
"A2C39KTRMOM1XZ","Collector",1,47,"2016-06-06T05:50:50-07:00","4",2,"Stimuli/versionBstim.txt","Procedure/versionBproc.txt","Tetris",NA,"n/a","n/a","n/a","n/a","n/a",0,"Instruct","N/A","User","Click the button below for the next list.","OFF","",1660,NA,NA,NA,NA,NA,NA,NA,NA
"A2C39KTRMOM1XZ","Collector",1,48,"2016-06-06T05:50:55-07:00","5",2,"Stimuli/versionBstim.txt","Procedure/versionBproc.txt","Tetris",NA,"FOG","","FOG","OFF","Unrel_G_L3",44,"Study","No","3","Unrel_G_L3","ON","",3000,NA,NA,NA,NA,NA,NA,NA,NA
"A2C39KTRMOM1XZ","Collector",1,49,"2016-06-06T05:51:00-07:00","5",2,"Stimuli/versionBstim.txt","Procedure/versionBproc.txt","Tetris",NA,"RAMP","","RAMP","OFF","Unrel_G_L3",42,"Study","No","3","Unrel_G_L3","ON","",3000,NA,NA,NA,NA,NA,NA,NA,NA
"A2C39KTRMOM1XZ","Collector",1,50,"2016-06-06T05:51:04-07:00","4",2,"Stimuli/versionBstim.txt","Procedure/versionBproc.txt","Tetris",NA,"NOODLE","","NOODLE","OFF","Unrel_G_L3",48,"Study","No","3","Unrel_G_L3","ON","",3000,NA,NA,NA,NA,NA,NA,NA,NA
"A2C39KTRMOM1XZ","Collector",1,51,"2016-06-06T05:51:09-07:00","5",2,"Stimuli/versionBstim.txt","Procedure/versionBproc.txt","Tetris",NA,"YARD","","YARD","OFF","Unrel_G_L3",53,"Study","No","3","Unrel_G_L3","ON","",3000,NA,NA,NA,NA,NA,NA,NA,NA
"A2C39KTRMOM1XZ","Collector",1,52,"2016-06-06T05:51:14-07:00","5",2,"Stimuli/versionBstim.txt","Procedure/versionBproc.txt","Tetris",NA,"MOISTURE","","MOISTURE","OFF","Unrel_G_L3",60,"Study","No","3","Unrel_G_L3","ON","",3000,NA,NA,NA,NA,NA,NA,NA,NA
"A2C39KTRMOM1XZ","Collector",1,53,"2016-06-06T05:51:19-07:00","5",2,"Stimuli/versionBstim.txt","Procedure/versionBproc.txt","Tetris",NA,"FANG","","FANG","OFF","Unrel_G_L3",46,"Study","No","3","Unrel_G_L3","ON","",3000,NA,NA,NA,NA,NA,NA,NA,NA
"A2C39KTRMOM1XZ","Collector",1,54,"2016-06-06T05:51:23-07:00","4",2,"Stimuli/versionBstim.txt","Procedure/versionBproc.txt","Tetris",NA,"CANISTER","","CANISTER","OFF","Unrel_G_L3",55,"Study","No","3","Unrel_G_L3","ON","",3000,NA,NA,NA,NA,NA,NA,NA,NA
"A2C39KTRMOM1XZ","Collector",1,55,"2016-06-06T05:51:28-07:00","5",2,"Stimuli/versionBstim.txt","Procedure/versionBproc.txt","Tetris",NA,"DOME","","DOME","OFF","Unrel_G_L3",49,"Study","No","3","Unrel_G_L3","ON","",3000,NA,NA,NA,NA,NA,NA,NA,NA
"A2C39KTRMOM1XZ","Collector",1,56,"2016-06-06T05:51:32-07:00","4",2,"Stimuli/versionBstim.txt","Procedure/versionBproc.txt","Tetris",NA,"GHOUL","","GHOUL","OFF","Unrel_G_L3",45,"Study","No","3","Unrel_G_L3","ON","",3000,NA,NA,NA,NA,NA,NA,NA,NA
"A2C39KTRMOM1XZ","Collector",1,57,"2016-06-06T05:51:37-07:00","5",2,"Stimuli/versionBstim.txt","Procedure/versionBproc.txt","Tetris",NA,"REPTILE","","REPTILE","OFF","Unrel_G_L3",61,"Study","No","3","Unrel_G_L3","ON","",3000,NA,NA,NA,NA,NA,NA,NA,NA
"A2C39KTRMOM1XZ","Collector",1,58,"2016-06-06T05:51:43-07:00","6",2,"Stimuli/versionBstim.txt","Procedure/versionBproc.txt","Tetris",NA,"THERMOMETER","","THERMOMETER","OFF","Unrel_G_L3",58,"Study","No","3","Unrel_G_L3","ON","",3000,NA,NA,NA,NA,NA,NA,NA,NA
"A2C39KTRMOM1XZ","Collector",1,59,"2016-06-06T05:51:48-07:00","5",2,"Stimuli/versionBstim.txt","Procedure/versionBproc.txt","Tetris",NA,"ZOO","","ZOO","OFF","Unrel_G_L3",56,"Study","No","3","Unrel_G_L3","ON","",3000,NA,NA,NA,NA,NA,NA,NA,NA
"A2C39KTRMOM1XZ","Collector",1,60,"2016-06-06T05:51:52-07:00","4",2,"Stimuli/versionBstim.txt","Procedure/versionBproc.txt","Tetris",NA,"TEE","","TEE","OFF","Unrel_G_L3",43,"Study","No","3","Unrel_G_L3","ON","",3000,NA,NA,NA,NA,NA,NA,NA,NA
"A2C39KTRMOM1XZ","Collector",1,61,"2016-06-06T05:51:57-07:00","5",2,"Stimuli/versionBstim.txt","Procedure/versionBproc.txt","Tetris",NA,"SPIKE","","SPIKE","OFF","Unrel_G_L3",47,"Study","No","3","Unrel_G_L3","ON","",3000,NA,NA,NA,NA,NA,NA,NA,NA
"A2C39KTRMOM1XZ","Collector",1,62,"2016-06-06T05:52:02-07:00","5",2,"Stimuli/versionBstim.txt","Procedure/versionBproc.txt","Tetris",NA,"INCENSE","","INCENSE","OFF","Unrel_G_L3",59,"Study","No","3","Unrel_G_L3","ON","",3000,NA,NA,NA,NA,NA,NA,NA,NA
"A2C39KTRMOM1XZ","Collector",1,63,"2016-06-06T05:52:07-07:00","5",2,"Stimuli/versionBstim.txt","Procedure/versionBproc.txt","Tetris",NA,"MOOSE","","MOOSE","OFF","Unrel_G_L3",52,"Study","No","3","Unrel_G_L3","ON","",3000,NA,NA,NA,NA,NA,NA,NA,NA
"A2C39KTRMOM1XZ","Collector",1,64,"2016-06-06T05:52:12-07:00","5",2,"Stimuli/versionBstim.txt","Procedure/versionBproc.txt","Tetris",NA,"RANCH","","RANCH","OFF","Unrel_G_L3",50,"Study","No","3","Unrel_G_L3","ON","",3000,NA,NA,NA,NA,NA,NA,NA,NA
"A2C39KTRMOM1XZ","Collector",1,65,"2016-06-06T05:52:17-07:00","5",2,"Stimuli/versionBstim.txt","Procedure/versionBproc.txt","Tetris",NA,"SCOUT","","SCOUT","OFF","Unrel_G_L3",51,"Study","No","3","Unrel_G_L3","ON","",3000,NA,NA,NA,NA,NA,NA,NA,NA
"A2C39KTRMOM1XZ","Collector",1,66,"2016-06-06T05:52:21-07:00","4",2,"Stimuli/versionBstim.txt","Procedure/versionBproc.txt","Tetris",NA,"PAPERCLIP","","PAPERCLIP","OFF","Unrel_G_L3",57,"Study","No","3","Unrel_G_L3","ON","",3000,NA,NA,NA,NA,NA,NA,NA,NA
"A2C39KTRMOM1XZ","Collector",1,67,"2016-06-06T05:52:26-07:00","5",2,"Stimuli/versionBstim.txt","Procedure/versionBproc.txt","Tetris",NA,"GOAL","","GOAL","OFF","Unrel_G_L3",54,"Study","No","3","Unrel_G_L3","ON","",3000,NA,NA,NA,NA,NA,NA,NA,NA
"A2C39KTRMOM1XZ","Collector",1,68,"2016-06-06T05:52:34-07:00","8",2,"Stimuli/versionBstim.txt","Procedure/versionBproc.txt","Tetris",NA,"n/a","n/a","n/a","n/a","n/a",0,"Instruct","N/A","User","Guess Instructions: 5 words related to the list you just saw were not presented. Try to guess these words by typing them into the dialog box on the next screen. You must guess at least one.","OFF","",5430,NA,NA,NA,NA,NA,NA,NA,NA
"A2C39KTRMOM1XZ","Collector",1,69,"2016-06-06T05:52:53-07:00","19",2,"Stimuli/versionBstim.txt","Procedure/versionBproc.txt","Tetris",NA,"n/a","n/a","n/a","n/a","n/a",0,"freerecall","N/A","User","Guess Below. You must make at least one guess. Click submit when you are finished.","OFF","wolf, cold, hot,",18020,2420,15430,NA,NA,NA,NA,NA,NA
"A2C39KTRMOM1XZ","Collector",1,70,"2016-06-06T05:52:58-07:00","5",2,"Stimuli/versionBstim.txt","Procedure/versionBproc.txt","Tetris",NA,"n/a","n/a","n/a","n/a","n/a",0,"Instruct","N/A","User","Click the button below for the next list.","OFF","",2750,NA,NA,NA,NA,NA,NA,NA,NA
"A2C39KTRMOM1XZ","Collector",1,71,"2016-06-06T05:53:03-07:00","5",2,"Stimuli/versionBstim.txt","Procedure/versionBproc.txt","Tetris",NA,"FIRE","","FIRE","OFF","Unrel_G_L4",81,"Study","No","3","Unrel_G_L4","ON","",3000,NA,NA,NA,NA,NA,NA,NA,NA
"A2C39KTRMOM1XZ","Collector",1,72,"2016-06-06T05:53:07-07:00","4",2,"Stimuli/versionBstim.txt","Procedure/versionBproc.txt","Tetris",NA,"LEAK","","LEAK","OFF","Unrel_G_L4",72,"Study","No","3","Unrel_G_L4","ON","",3000,NA,NA,NA,NA,NA,NA,NA,NA
"A2C39KTRMOM1XZ","Collector",1,73,"2016-06-06T05:53:12-07:00","5",2,"Stimuli/versionBstim.txt","Procedure/versionBproc.txt","Tetris",NA,"WHIP","","WHIP","OFF","Unrel_G_L4",79,"Study","No","3","Unrel_G_L4","ON","",3000,NA,NA,NA,NA,NA,NA,NA,NA
"A2C39KTRMOM1XZ","Collector",1,74,"2016-06-06T05:53:17-07:00","5",2,"Stimuli/versionBstim.txt","Procedure/versionBproc.txt","Tetris",NA,"SAUCER","","SAUCER","OFF","Unrel_G_L4",66,"Study","No","3","Unrel_G_L4","ON","",3000,NA,NA,NA,NA,NA,NA,NA,NA
"A2C39KTRMOM1XZ","Collector",1,75,"2016-06-06T05:53:22-07:00","5",2,"Stimuli/versionBstim.txt","Procedure/versionBproc.txt","Tetris",NA,"RUT","","RUT","OFF","Unrel_G_L4",77,"Study","No","3","Unrel_G_L4","ON","",3000,NA,NA,NA,NA,NA,NA,NA,NA
"A2C39KTRMOM1XZ","Collector",1,76,"2016-06-06T05:53:28-07:00","6",2,"Stimuli/versionBstim.txt","Procedure/versionBproc.txt","Tetris",NA,"MALE","","MALE","OFF","Unrel_G_L4",75,"Study","No","3","Unrel_G_L4","ON","",3000,NA,NA,NA,NA,NA,NA,NA,NA
"A2C39KTRMOM1XZ","Collector",1,77,"2016-06-06T05:53:34-07:00","6",2,"Stimuli/versionBstim.txt","Procedure/versionBproc.txt","Tetris",NA,"JELLYFISH","","JELLYFISH","OFF","Unrel_G_L4",62,"Study","No","3","Unrel_G_L4","ON","",3000,NA,NA,NA,NA,NA,NA,NA,NA
"A2C39KTRMOM1XZ","Collector",1,78,"2016-06-06T05:53:38-07:00","4",2,"Stimuli/versionBstim.txt","Procedure/versionBproc.txt","Tetris",NA,"WRECK","","WRECK","OFF","Unrel_G_L4",63,"Study","No","3","Unrel_G_L4","ON","",3000,NA,NA,NA,NA,NA,NA,NA,NA
"A2C39KTRMOM1XZ","Collector",1,79,"2016-06-06T05:53:43-07:00","5",2,"Stimuli/versionBstim.txt","Procedure/versionBproc.txt","Tetris",NA,"ROLL","","ROLL","OFF","Unrel_G_L4",78,"Study","No","3","Unrel_G_L4","ON","",3000,NA,NA,NA,NA,NA,NA,NA,NA
"A2C39KTRMOM1XZ","Collector",1,80,"2016-06-06T05:53:48-07:00","5",2,"Stimuli/versionBstim.txt","Procedure/versionBproc.txt","Tetris",NA,"PORTRAIT","","PORTRAIT","OFF","Unrel_G_L4",64,"Study","No","3","Unrel_G_L4","ON","",3000,NA,NA,NA,NA,NA,NA,NA,NA
"A2C39KTRMOM1XZ","Collector",1,81,"2016-06-06T05:53:53-07:00","5",2,"Stimuli/versionBstim.txt","Procedure/versionBproc.txt","Tetris",NA,"TALK","","TALK","OFF","Unrel_G_L4",80,"Study","No","3","Unrel_G_L4","ON","",3000,NA,NA,NA,NA,NA,NA,NA,NA
"A2C39KTRMOM1XZ","Collector",1,82,"2016-06-06T05:53:58-07:00","5",2,"Stimuli/versionBstim.txt","Procedure/versionBproc.txt","Tetris",NA,"IVORY","","IVORY","OFF","Unrel_G_L4",68,"Study","No","3","Unrel_G_L4","ON","",3000,NA,NA,NA,NA,NA,NA,NA,NA
"A2C39KTRMOM1XZ","Collector",1,83,"2016-06-06T05:54:02-07:00","4",2,"Stimuli/versionBstim.txt","Procedure/versionBproc.txt","Tetris",NA,"RACKET","","RACKET","OFF","Unrel_G_L4",76,"Study","No","3","Unrel_G_L4","ON","",3000,NA,NA,NA,NA,NA,NA,NA,NA
"A2C39KTRMOM1XZ","Collector",1,84,"2016-06-06T05:54:16-07:00","14",2,"Stimuli/versionBstim.txt","Procedure/versionBproc.txt","Tetris",NA,"CREPE","","CREPE","OFF","Unrel_G_L4",71,"Study","No","3","Unrel_G_L4","ON","",3000,NA,NA,NA,NA,NA,NA,NA,NA
"A2C39KTRMOM1XZ","Collector",1,85,"2016-06-06T05:54:21-07:00","5",2,"Stimuli/versionBstim.txt","Procedure/versionBproc.txt","Tetris",NA,"CAMERA","","CAMERA","OFF","Unrel_G_L4",70,"Study","No","3","Unrel_G_L4","ON","",3000,NA,NA,NA,NA,NA,NA,NA,NA
"A2C39KTRMOM1XZ","Collector",1,86,"2016-06-06T05:54:26-07:00","5",2,"Stimuli/versionBstim.txt","Procedure/versionBproc.txt","Tetris",NA,"RAINBOW","","RAINBOW","OFF","Unrel_G_L4",65,"Study","No","3","Unrel_G_L4","ON","",3000,NA,NA,NA,NA,NA,NA,NA,NA
"A2C39KTRMOM1XZ","Collector",1,87,"2016-06-06T05:54:37-07:00","11",2,"Stimuli/versionBstim.txt","Procedure/versionBproc.txt","Tetris",NA,"PUPPY","","PUPPY","OFF","Unrel_G_L4",69,"Study","No","3","Unrel_G_L4","ON","",3000,NA,NA,NA,NA,NA,NA,NA,NA
"A2C39KTRMOM1XZ","Collector",1,88,"2016-06-06T05:54:42-07:00","5",2,"Stimuli/versionBstim.txt","Procedure/versionBproc.txt","Tetris",NA,"AIRPORT","","AIRPORT","OFF","Unrel_G_L4",73,"Study","No","3","Unrel_G_L4","ON","",3000,NA,NA,NA,NA,NA,NA,NA,NA
"A2C39KTRMOM1XZ","Collector",1,89,"2016-06-06T05:54:46-07:00","4",2,"Stimuli/versionBstim.txt","Procedure/versionBproc.txt","Tetris",NA,"MACHINE","","MACHINE","OFF","Unrel_G_L4",67,"Study","No","3","Unrel_G_L4","ON","",3000,NA,NA,NA,NA,NA,NA,NA,NA
"A2C39KTRMOM1XZ","Collector",1,90,"2016-06-06T05:54:51-07:00","5",2,"Stimuli/versionBstim.txt","Procedure/versionBproc.txt","Tetris",NA,"BLOUSE","","BLOUSE","OFF","Unrel_G_L4",74,"Study","No","3","Unrel_G_L4","ON","",3000,NA,NA,NA,NA,NA,NA,NA,NA
"A2C39KTRMOM1XZ","Collector",1,91,"2016-06-06T05:54:58-07:00","7",2,"Stimuli/versionBstim.txt","Procedure/versionBproc.txt","Tetris",NA,"n/a","n/a","n/a","n/a","n/a",0,"Instruct","N/A","User","Guess Instructions: 5 words related to the list you just saw were not presented. Try to guess these words by typing them into the dialog box on the next screen. You must guess at least one.","OFF","",5280,NA,NA,NA,NA,NA,NA,NA,NA
"A2C39KTRMOM1XZ","Collector",1,92,"2016-06-06T05:55:30-07:00","32",2,"Stimuli/versionBstim.txt","Procedure/versionBproc.txt","Tetris",NA,"n/a","n/a","n/a","n/a","n/a",0,"freerecall","N/A","User","Guess Below. You must make at least one guess. Click submit when you are finished.","OFF","rain, airplane, dog",22670,2050,15150,NA,NA,NA,NA,NA,NA
"A2C39KTRMOM1XZ","Collector",1,93,"2016-06-06T05:55:34-07:00","4",2,"Stimuli/versionBstim.txt","Procedure/versionBproc.txt","Tetris",NA,"n/a","n/a","n/a","n/a","n/a",0,"Instruct","N/A","User","Click the button below for the next list.","OFF","",1280,NA,NA,NA,NA,NA,NA,NA,NA
"A2C39KTRMOM1XZ","Collector",1,94,"2016-06-06T05:55:39-07:00","5",2,"Stimuli/versionBstim.txt","Procedure/versionBproc.txt","Tetris",NA,"INK","","INK","OFF","AdHoc_G_L5",93,"Study","No","3","AdHoc_G_L5","ON","",3000,NA,NA,NA,NA,NA,NA,NA,NA
"A2C39KTRMOM1XZ","Collector",1,95,"2016-06-06T05:55:44-07:00","5",2,"Stimuli/versionBstim.txt","Procedure/versionBproc.txt","Tetris",NA,"TIRES","","TIRES","OFF","AdHoc_G_L5",84,"Study","No","3","AdHoc_G_L5","ON","",3000,NA,NA,NA,NA,NA,NA,NA,NA
"A2C39KTRMOM1XZ","Collector",1,96,"2016-06-06T05:55:49-07:00","5",2,"Stimuli/versionBstim.txt","Procedure/versionBproc.txt","Tetris",NA,"EBONY","","EBONY","OFF","AdHoc_G_L5",101,"Study","No","3","AdHoc_G_L5","ON","",3000,NA,NA,NA,NA,NA,NA,NA,NA
"A2C39KTRMOM1XZ","Collector",1,97,"2016-06-06T05:55:54-07:00","5",2,"Stimuli/versionBstim.txt","Procedure/versionBproc.txt","Tetris",NA,"PANTHER","","PANTHER","OFF","AdHoc_G_L5",90,"Study","No","3","AdHoc_G_L5","ON","",3000,NA,NA,NA,NA,NA,NA,NA,NA
"A2C39KTRMOM1XZ","Collector",1,98,"2016-06-06T05:55:59-07:00","5",2,"Stimuli/versionBstim.txt","Procedure/versionBproc.txt","Tetris",NA,"WITCH","","WITCH","OFF","AdHoc_G_L5",89,"Study","No","3","AdHoc_G_L5","ON","",3000,NA,NA,NA,NA,NA,NA,NA,NA
"A2C39KTRMOM1XZ","Collector",1,99,"2016-06-06T05:56:04-07:00","5",2,"Stimuli/versionBstim.txt","Procedure/versionBproc.txt","Tetris",NA,"PEPPER ","","PEPPER ","OFF","AdHoc_G_L5",94,"Study","No","3","AdHoc_G_L5","ON","",3000,NA,NA,NA,NA,NA,NA,NA,NA
"A2C39KTRMOM1XZ","Collector",1,100,"2016-06-06T05:56:09-07:00","5",2,"Stimuli/versionBstim.txt","Procedure/versionBproc.txt","Tetris",NA,"TUXEDO","","TUXEDO","OFF","AdHoc_G_L5",88,"Study","No","3","AdHoc_G_L5","ON","",3000,NA,NA,NA,NA,NA,NA,NA,NA
"A2C39KTRMOM1XZ","Collector",1,101,"2016-06-06T05:56:14-07:00","5",2,"Stimuli/versionBstim.txt","Procedure/versionBproc.txt","Tetris",NA,"LIMOUSINE","","LIMOUSINE","OFF","AdHoc_G_L5",91,"Study","No","3","AdHoc_G_L5","ON","",3000,NA,NA,NA,NA,NA,NA,NA,NA
"A2C39KTRMOM1XZ","Collector",1,102,"2016-06-06T05:56:19-07:00","5",2,"Stimuli/versionBstim.txt","Procedure/versionBproc.txt","Tetris",NA,"PAVEMENT","","PAVEMENT","OFF","AdHoc_G_L5",100,"Study","No","3","AdHoc_G_L5","ON","",3000,NA,NA,NA,NA,NA,NA,NA,NA
"A2C39KTRMOM1XZ","Collector",1,103,"2016-06-06T05:56:23-07:00","4",2,"Stimuli/versionBstim.txt","Procedure/versionBproc.txt","Tetris",NA,"ASPHAULT","","ASPHAULT","OFF","AdHoc_G_L5",87,"Study","No","3","AdHoc_G_L5","ON","",3000,NA,NA,NA,NA,NA,NA,NA,NA
"A2C39KTRMOM1XZ","Collector",1,104,"2016-06-06T05:56:28-07:00","5",2,"Stimuli/versionBstim.txt","Procedure/versionBproc.txt","Tetris",NA,"PUCK","","PUCK","OFF","AdHoc_G_L5",83,"Study","No","3","AdHoc_G_L5","ON","",3000,NA,NA,NA,NA,NA,NA,NA,NA
"A2C39KTRMOM1XZ","Collector",1,105,"2016-06-06T05:56:33-07:00","5",2,"Stimuli/versionBstim.txt","Procedure/versionBproc.txt","Tetris",NA,"LICORICE","","LICORICE","OFF","AdHoc_G_L5",85,"Study","No","3","AdHoc_G_L5","ON","",3000,NA,NA,NA,NA,NA,NA,NA,NA
"A2C39KTRMOM1XZ","Collector",1,106,"2016-06-06T05:56:37-07:00","4",2,"Stimuli/versionBstim.txt","Procedure/versionBproc.txt","Tetris",NA,"PUPIL","","PUPIL","OFF","AdHoc_G_L5",82,"Study","No","3","AdHoc_G_L5","ON","",3000,NA,NA,NA,NA,NA,NA,NA,NA
"A2C39KTRMOM1XZ","Collector",1,107,"2016-06-06T05:56:41-07:00","4",2,"Stimuli/versionBstim.txt","Procedure/versionBproc.txt","Tetris",NA,"ONYX","","ONYX","OFF","AdHoc_G_L5",96,"Study","No","3","AdHoc_G_L5","ON","",3000,NA,NA,NA,NA,NA,NA,NA,NA
"A2C39KTRMOM1XZ","Collector",1,108,"2016-06-06T05:56:46-07:00","5",2,"Stimuli/versionBstim.txt","Procedure/versionBproc.txt","Tetris",NA,"SPIDER","","SPIDER","OFF","AdHoc_G_L5",92,"Study","No","3","AdHoc_G_L5","ON","",3000,NA,NA,NA,NA,NA,NA,NA,NA
"A2C39KTRMOM1XZ","Collector",1,109,"2016-06-06T05:56:51-07:00","5",2,"Stimuli/versionBstim.txt","Procedure/versionBproc.txt","Tetris",NA,"CHALKBOARD","","CHALKBOARD","OFF","AdHoc_G_L5",86,"Study","No","3","AdHoc_G_L5","ON","",3000,NA,NA,NA,NA,NA,NA,NA,NA
"A2C39KTRMOM1XZ","Collector",1,110,"2016-06-06T05:56:55-07:00","4",2,"Stimuli/versionBstim.txt","Procedure/versionBproc.txt","Tetris",NA,"BRUISE","","BRUISE","OFF","AdHoc_G_L5",98,"Study","No","3","AdHoc_G_L5","ON","",3000,NA,NA,NA,NA,NA,NA,NA,NA
"A2C39KTRMOM1XZ","Collector",1,111,"2016-06-06T05:56:59-07:00","4",2,"Stimuli/versionBstim.txt","Procedure/versionBproc.txt","Tetris",NA,"ASH","","ASH","OFF","AdHoc_G_L5",95,"Study","No","3","AdHoc_G_L5","ON","",3000,NA,NA,NA,NA,NA,NA,NA,NA
"A2C39KTRMOM1XZ","Collector",1,112,"2016-06-06T05:57:04-07:00","5",2,"Stimuli/versionBstim.txt","Procedure/versionBproc.txt","Tetris",NA,"OBSIDIAN","","OBSIDIAN","OFF","AdHoc_G_L5",97,"Study","No","3","AdHoc_G_L5","ON","",3000,NA,NA,NA,NA,NA,NA,NA,NA
"A2C39KTRMOM1XZ","Collector",1,113,"2016-06-06T05:57:09-07:00","5",2,"Stimuli/versionBstim.txt","Procedure/versionBproc.txt","Tetris",NA,"SHADOW","","SHADOW","OFF","AdHoc_G_L5",99,"Study","No","3","AdHoc_G_L5","ON","",3000,NA,NA,NA,NA,NA,NA,NA,NA
"A2C39KTRMOM1XZ","Collector",1,114,"2016-06-06T05:57:15-07:00","6",2,"Stimuli/versionBstim.txt","Procedure/versionBproc.txt","Tetris",NA,"n/a","n/a","n/a","n/a","n/a",0,"Instruct","N/A","User","Guess Instructions: 5 words related to the list you just saw were not presented. Try to guess these words by typing them into the dialog box on the next screen. You must guess at least one.","OFF","",4020,NA,NA,NA,NA,NA,NA,NA,NA
"A2C39KTRMOM1XZ","Collector",1,115,"2016-06-06T05:57:37-07:00","22",2,"Stimuli/versionBstim.txt","Procedure/versionBproc.txt","Tetris",NA,"n/a","n/a","n/a","n/a","n/a",0,"freerecall","N/A","User","Guess Below. You must make at least one guess. Click submit when you are finished.","OFF","Beauty, Pearl, remote, Dress",19940,2220,17330,NA,NA,NA,NA,NA,NA
"A2C39KTRMOM1XZ","Collector",1,116,"2016-06-06T05:57:40-07:00","3",2,"Stimuli/versionBstim.txt","Procedure/versionBproc.txt","Tetris",NA,"n/a","n/a","n/a","n/a","n/a",0,"Instruct","N/A","User","Click the button below for the next list.","OFF","",1750,NA,NA,NA,NA,NA,NA,NA,NA
"A2C39KTRMOM1XZ","Collector",1,117,"2016-06-06T05:57:45-07:00","5",2,"Stimuli/versionBstim.txt","Procedure/versionBproc.txt","Tetris",NA,"AWL","","AWL","OFF","Cat_G_L6",113,"Study","No","3","Cat_G_L6","ON","",3000,NA,NA,NA,NA,NA,NA,NA,NA
"A2C39KTRMOM1XZ","Collector",1,118,"2016-06-06T05:57:49-07:00","4",2,"Stimuli/versionBstim.txt","Procedure/versionBproc.txt","Tetris",NA,"SANDER","","SANDER","OFF","Cat_G_L6",115,"Study","No","3","Cat_G_L6","ON","",3000,NA,NA,NA,NA,NA,NA,NA,NA
"A2C39KTRMOM1XZ","Collector",1,119,"2016-06-06T05:57:54-07:00","5",2,"Stimuli/versionBstim.txt","Procedure/versionBproc.txt","Tetris",NA,"CROWBAR","","CROWBAR","OFF","Cat_G_L6",114,"Study","No","3","Cat_G_L6","ON","",3000,NA,NA,NA,NA,NA,NA,NA,NA
"A2C39KTRMOM1XZ","Collector",1,120,"2016-06-06T05:57:59-07:00","5",2,"Stimuli/versionBstim.txt","Procedure/versionBproc.txt","Tetris",NA,"SAWHORSE","","SAWHORSE","OFF","Cat_G_L6",109,"Study","No","3","Cat_G_L6","ON","",3000,NA,NA,NA,NA,NA,NA,NA,NA
"A2C39KTRMOM1XZ","Collector",1,121,"2016-06-06T05:58:04-07:00","5",2,"Stimuli/versionBstim.txt","Procedure/versionBproc.txt","Tetris",NA,"LATHE","","LATHE","OFF","Cat_G_L6",111,"Study","No","3","Cat_G_L6","ON","",3000,NA,NA,NA,NA,NA,NA,NA,NA
"A2C39KTRMOM1XZ","Collector",1,122,"2016-06-06T05:58:09-07:00","5",2,"Stimuli/versionBstim.txt","Procedure/versionBproc.txt","Tetris",NA,"VISE","","VISE","OFF","Cat_G_L6",119,"Study","No","3","Cat_G_L6","ON","",3000,NA,NA,NA,NA,NA,NA,NA,NA
"A2C39KTRMOM1XZ","Collector",1,123,"2016-06-06T05:58:15-07:00","6",2,"Stimuli/versionBstim.txt","Procedure/versionBproc.txt","Tetris",NA,"FILE","","FILE","OFF","Cat_G_L6",110,"Study","No","3","Cat_G_L6","ON","",3000,NA,NA,NA,NA,NA,NA,NA,NA
"A2C39KTRMOM1XZ","Collector",1,124,"2016-06-06T05:58:20-07:00","5",2,"Stimuli/versionBstim.txt","Procedure/versionBproc.txt","Tetris",NA,"WOOD","","WOOD","OFF","Cat_G_L6",116,"Study","No","3","Cat_G_L6","ON","",3000,NA,NA,NA,NA,NA,NA,NA,NA
"A2C39KTRMOM1XZ","Collector",1,125,"2016-06-06T05:58:25-07:00","5",2,"Stimuli/versionBstim.txt","Procedure/versionBproc.txt","Tetris",NA,"LEVEL","","LEVEL","OFF","Cat_G_L6",103,"Study","No","3","Cat_G_L6","ON","",3000,NA,NA,NA,NA,NA,NA,NA,NA
"A2C39KTRMOM1XZ","Collector",1,126,"2016-06-06T05:58:46-07:00","21",2,"Stimuli/versionBstim.txt","Procedure/versionBproc.txt","Tetris",NA,"WRENCH","","WRENCH","OFF","Cat_G_L6",105,"Study","No","3","Cat_G_L6","ON","",3000,NA,NA,NA,NA,NA,NA,NA,NA
"A2C39KTRMOM1XZ","Collector",1,127,"2016-06-06T05:58:51-07:00","5",2,"Stimuli/versionBstim.txt","Procedure/versionBproc.txt","Tetris",NA,"SANDPAPER","","SANDPAPER","OFF","Cat_G_L6",112,"Study","No","3","Cat_G_L6","ON","",3000,NA,NA,NA,NA,NA,NA,NA,NA
"A2C39KTRMOM1XZ","Collector",1,128,"2016-06-06T05:58:56-07:00","5",2,"Stimuli/versionBstim.txt","Procedure/versionBproc.txt","Tetris",NA,"AXE","","AXE","OFF","Cat_G_L6",118,"Study","No","3","Cat_G_L6","ON","",3000,NA,NA,NA,NA,NA,NA,NA,NA
"A2C39KTRMOM1XZ","Collector",1,129,"2016-06-06T05:59:00-07:00","4",2,"Stimuli/versionBstim.txt","Procedure/versionBproc.txt","Tetris",NA,"DRILL","","DRILL","OFF","Cat_G_L6",106,"Study","No","3","Cat_G_L6","ON","",3000,NA,NA,NA,NA,NA,NA,NA,NA
"A2C39KTRMOM1XZ","Collector",1,130,"2016-06-06T05:59:05-07:00","5",2,"Stimuli/versionBstim.txt","Procedure/versionBproc.txt","Tetris",NA,"BOLTS","","BOLTS","OFF","Cat_G_L6",120,"Study","No","3","Cat_G_L6","ON","",3000,NA,NA,NA,NA,NA,NA,NA,NA
"A2C39KTRMOM1XZ","Collector",1,131,"2016-06-06T05:59:10-07:00","5",2,"Stimuli/versionBstim.txt","Procedure/versionBproc.txt","Tetris",NA,"GLUE","","GLUE","OFF","Cat_G_L6",108,"Study","No","3","Cat_G_L6","ON","",3000,NA,NA,NA,NA,NA,NA,NA,NA
"A2C39KTRMOM1XZ","Collector",1,132,"2016-06-06T05:59:14-07:00","4",2,"Stimuli/versionBstim.txt","Procedure/versionBproc.txt","Tetris",NA,"HINGE","","HINGE","OFF","Cat_G_L6",121,"Study","No","3","Cat_G_L6","ON","",3000,NA,NA,NA,NA,NA,NA,NA,NA
"A2C39KTRMOM1XZ","Collector",1,133,"2016-06-06T05:59:19-07:00","5",2,"Stimuli/versionBstim.txt","Procedure/versionBproc.txt","Tetris",NA,"NAILS","","NAILS","OFF","Cat_G_L6",102,"Study","No","3","Cat_G_L6","ON","",3000,NA,NA,NA,NA,NA,NA,NA,NA
"A2C39KTRMOM1XZ","Collector",1,134,"2016-06-06T05:59:24-07:00","5",2,"Stimuli/versionBstim.txt","Procedure/versionBproc.txt","Tetris",NA,"SCREWS","","SCREWS","OFF","Cat_G_L6",107,"Study","No","3","Cat_G_L6","ON","",3000,NA,NA,NA,NA,NA,NA,NA,NA
"A2C39KTRMOM1XZ","Collector",1,135,"2016-06-06T05:59:28-07:00","4",2,"Stimuli/versionBstim.txt","Procedure/versionBproc.txt","Tetris",NA,"CHISEL","","CHISEL","OFF","Cat_G_L6",104,"Study","No","3","Cat_G_L6","ON","",3000,NA,NA,NA,NA,NA,NA,NA,NA
"A2C39KTRMOM1XZ","Collector",1,136,"2016-06-06T05:59:33-07:00","5",2,"Stimuli/versionBstim.txt","Procedure/versionBproc.txt","Tetris",NA,"WEDGE","","WEDGE","OFF","Cat_G_L6",117,"Study","No","3","Cat_G_L6","ON","",3000,NA,NA,NA,NA,NA,NA,NA,NA
"A2C39KTRMOM1XZ","Collector",1,137,"2016-06-06T05:59:40-07:00","7",2,"Stimuli/versionBstim.txt","Procedure/versionBproc.txt","Tetris",NA,"n/a","n/a","n/a","n/a","n/a",0,"Instruct","N/A","User","Guess Instructions: 5 words related to the list you just saw were not presented. Try to guess these words by typing them into the dialog box on the next screen. You must guess at least one.","OFF","",5840,NA,NA,NA,NA,NA,NA,NA,NA
"A2C39KTRMOM1XZ","Collector",1,138,"2016-06-06T06:00:08-07:00","28",2,"Stimuli/versionBstim.txt","Procedure/versionBproc.txt","Tetris",NA,"n/a","n/a","n/a","n/a","n/a",0,"freerecall","N/A","User","Guess Below. You must make at least one guess. Click submit when you are finished.","OFF","Screwdriver, Saw, Hammer, Socket",25690,3050,19610,NA,NA,NA,NA,NA,NA
"A2C39KTRMOM1XZ","Collector",1,139,"2016-06-06T06:00:23-07:00","15",2,"Stimuli/versionBstim.txt","Procedure/versionBproc.txt","Tetris",NA,"n/a","n/a","n/a","n/a","n/a",0,"Instruct","N/A","User","Now you will complete a recognition memory test based on the last 6 lists that you have studied. A word will be displayed on the computer screen and you are to decide whether the word was studied in the last 6 lists. If the word was studied, click the yes button. If the word was not studied, click the no button. Respond as quickly as possible without compromising accuracy.","OFF","",12630,NA,NA,NA,NA,NA,NA,NA,NA
"A2C39KTRMOM1XZ","Collector",1,140,"2016-06-06T06:00:28-07:00","5",2,"Stimuli/versionBstim.txt","Procedure/versionBproc.txt","Tetris",NA,"n/a","n/a","n/a","n/a","n/a",0,"Instruct","N/A","User","Click the button below to begin the test.","OFF","",2850,NA,NA,NA,NA,NA,NA,NA,NA
"A2C39KTRMOM1XZ","Collector",1,141,"2016-06-06T06:00:33-07:00","5",2,"Stimuli/versionBstim.txt","Procedure/versionBproc.txt","Tetris",NA,"INCENSE","","INCENSE","OFF","LI_Unrel_G",240,"seqrec","No","User","RGN Test","ON","Yes",1370,NA,NA,NA,NA,NA,NA,NA,NA
"A2C39KTRMOM1XZ","Collector",1,142,"2016-06-06T06:00:37-07:00","4",2,"Stimuli/versionBstim.txt","Procedure/versionBproc.txt","Tetris",NA,"SODA","","SODA","OFF","LI_AdHoc_G",212,"seqrec","No","User","RGN Test","ON","Yes",1260,NA,NA,NA,NA,NA,NA,NA,NA
"A2C39KTRMOM1XZ","Collector",1,143,"2016-06-06T06:00:41-07:00","4",2,"Stimuli/versionBstim.txt","Procedure/versionBproc.txt","Tetris",NA,"GUN","","GUN","OFF","NPCI_AdHoc_G",198,"seqrec","No","User","RGN Test","ON","No",1140,NA,NA,NA,NA,NA,NA,NA,NA
"A2C39KTRMOM1XZ","Collector",1,144,"2016-06-06T06:00:46-07:00","5",2,"Stimuli/versionBstim.txt","Procedure/versionBproc.txt","Tetris",NA,"WEDGE","","WEDGE","OFF","LI_Cat_G",269,"seqrec","No","User","RGN Test","ON","Yes",1390,NA,NA,NA,NA,NA,NA,NA,NA
"A2C39KTRMOM1XZ","Collector",1,145,"2016-06-06T06:00:51-07:00","5",2,"Stimuli/versionBstim.txt","Procedure/versionBproc.txt","Tetris",NA,"RUT","","RUT","OFF","LI_Unrel_G",249,"seqrec","No","User","RGN Test","ON","No",1270,NA,NA,NA,NA,NA,NA,NA,NA
"A2C39KTRMOM1XZ","Collector",1,146,"2016-06-06T06:00:57-07:00","6",2,"Stimuli/versionBstim.txt","Procedure/versionBproc.txt","Tetris",NA,"SAW","","SAW","OFF","CI_Cat_G",297,"seqrec","No","User","RGN Test","ON","No",2550,NA,NA,NA,NA,NA,NA,NA,NA
"A2C39KTRMOM1XZ","Collector",1,147,"2016-06-06T06:01:01-07:00","4",2,"Stimuli/versionBstim.txt","Procedure/versionBproc.txt","Tetris",NA,"HOOK","","HOOK","OFF","NPLI_Unrel_G",134,"seqrec","No","User","RGN Test","ON","No",1310,NA,NA,NA,NA,NA,NA,NA,NA
"A2C39KTRMOM1XZ","Collector",1,148,"2016-06-06T06:01:48-07:00","47",2,"Stimuli/versionBstim.txt","Procedure/versionBproc.txt","Tetris",NA,"OBSIDIAN","","OBSIDIAN","OFF","LI_AdHoc_G",259,"seqrec","No","User","RGN Test","ON","Yes",1950,NA,NA,NA,NA,NA,NA,NA,NA
"A2C39KTRMOM1XZ","Collector",1,149,"2016-06-06T06:01:51-07:00","3",2,"Stimuli/versionBstim.txt","Procedure/versionBproc.txt","Tetris",NA,"LEVEL","","LEVEL","OFF","LI_Cat_G",262,"seqrec","No","User","RGN Test","ON","Yes",1350,NA,NA,NA,NA,NA,NA,NA,NA
"A2C39KTRMOM1XZ","Collector",1,150,"2016-06-06T06:01:54-07:00","3",2,"Stimuli/versionBstim.txt","Procedure/versionBproc.txt","Tetris",NA,"MANHOLE","","MANHOLE","OFF","NPLI_Unrel_G",141,"seqrec","No","User","RGN Test","ON","No",1020,NA,NA,NA,NA,NA,NA,NA,NA
"A2C39KTRMOM1XZ","Collector",1,151,"2016-06-06T06:01:58-07:00","4",2,"Stimuli/versionBstim.txt","Procedure/versionBproc.txt","Tetris",NA,"TURNIP","","TURNIP","OFF","LI_Cat_G",228,"seqrec","No","User","RGN Test","ON","Yes",2600,NA,NA,NA,NA,NA,NA,NA,NA
"A2C39KTRMOM1XZ","Collector",1,152,"2016-06-06T06:02:01-07:00","3",2,"Stimuli/versionBstim.txt","Procedure/versionBproc.txt","Tetris",NA,"CANISTER","","CANISTER","OFF","LI_Unrel_G",238,"seqrec","No","User","RGN Test","ON","Yes",1280,NA,NA,NA,NA,NA,NA,NA,NA
"A2C39KTRMOM1XZ","Collector",1,153,"2016-06-06T06:02:04-07:00","3",2,"Stimuli/versionBstim.txt","Procedure/versionBproc.txt","Tetris",NA,"POTATO","","POTATO","OFF","LI_Cat_G",222,"seqrec","No","User","RGN Test","ON","No",1050,NA,NA,NA,NA,NA,NA,NA,NA
"A2C39KTRMOM1XZ","Collector",1,154,"2016-06-06T06:02:07-07:00","3",2,"Stimuli/versionBstim.txt","Procedure/versionBproc.txt","Tetris",NA,"SHRIMP","","SHRIMP","OFF","NPLI_Unrel_G",140,"seqrec","No","User","RGN Test","ON","No",1530,NA,NA,NA,NA,NA,NA,NA,NA
"A2C39KTRMOM1XZ","Collector",1,155,"2016-06-06T06:02:11-07:00","4",2,"Stimuli/versionBstim.txt","Procedure/versionBproc.txt","Tetris",NA,"OCTOPUS","","OCTOPUS","OFF","NPCI_Unrel_G",190,"seqrec","No","User","RGN Test","ON","No",2040,NA,NA,NA,NA,NA,NA,NA,NA
"A2C39KTRMOM1XZ","Collector",1,156,"2016-06-06T06:02:15-07:00","4",2,"Stimuli/versionBstim.txt","Procedure/versionBproc.txt","Tetris",NA,"LAWNMOWER","","LAWNMOWER","OFF","NPCI_AdHoc_G",200,"seqrec","No","User","RGN Test","ON","No",1590,NA,NA,NA,NA,NA,NA,NA,NA
"A2C39KTRMOM1XZ","Collector",1,157,"2016-06-06T06:02:19-07:00","4",2,"Stimuli/versionBstim.txt","Procedure/versionBproc.txt","Tetris",NA,"BELLS","","BELLS","OFF","NPLI_AdHoc_G",153,"seqrec","No","User","RGN Test","ON","No",1860,NA,NA,NA,NA,NA,NA,NA,NA
"A2C39KTRMOM1XZ","Collector",1,158,"2016-06-06T06:02:22-07:00","3",2,"Stimuli/versionBstim.txt","Procedure/versionBproc.txt","Tetris",NA,"GRAPE","","GRAPE","OFF","NPCI_Cat_G",194,"seqrec","No","User","RGN Test","ON","No",990,NA,NA,NA,NA,NA,NA,NA,NA
"A2C39KTRMOM1XZ","Collector",1,159,"2016-06-06T06:02:24-07:00","2",2,"Stimuli/versionBstim.txt","Procedure/versionBproc.txt","Tetris",NA,"SNAKE","","SNAKE","OFF","NPLI_AdHoc_G",128,"seqrec","No","User","RGN Test","ON","No",1170,NA,NA,NA,NA,NA,NA,NA,NA
"A2C39KTRMOM1XZ","Collector",1,160,"2016-06-06T06:02:27-07:00","3",2,"Stimuli/versionBstim.txt","Procedure/versionBproc.txt","Tetris",NA,"HORSE","","HORSE","OFF","NPLI_Cat_G",162,"seqrec","No","User","RGN Test","ON","No",1270,NA,NA,NA,NA,NA,NA,NA,NA
"A2C39KTRMOM1XZ","Collector",1,161,"2016-06-06T06:02:30-07:00","3",2,"Stimuli/versionBstim.txt","Procedure/versionBproc.txt","Tetris",NA,"CROW","","CROW","OFF","CI_AdHoc_G",296,"seqrec","No","User","RGN Test","ON","No",1010,NA,NA,NA,NA,NA,NA,NA,NA
"A2C39KTRMOM1XZ","Collector",1,162,"2016-06-06T06:02:33-07:00","3",2,"Stimuli/versionBstim.txt","Procedure/versionBproc.txt","Tetris",NA,"SALAD","","SALAD","OFF","NPLI_AdHoc_G",131,"seqrec","No","User","RGN Test","ON","No",1200,NA,NA,NA,NA,NA,NA,NA,NA
"A2C39KTRMOM1XZ","Collector",1,163,"2016-06-06T06:02:36-07:00","3",2,"Stimuli/versionBstim.txt","Procedure/versionBproc.txt","Tetris",NA,"TREAT","","TREAT","OFF","CI_Unrel_G",287,"seqrec","No","User","RGN Test","ON","No",1350,NA,NA,NA,NA,NA,NA,NA,NA
"A2C39KTRMOM1XZ","Collector",1,164,"2016-06-06T06:02:39-07:00","3",2,"Stimuli/versionBstim.txt","Procedure/versionBproc.txt","Tetris",NA,"WITCH","","WITCH","OFF","LI_AdHoc_G",255,"seqrec","No","User","RGN Test","ON","Yes",1210,NA,NA,NA,NA,NA,NA,NA,NA
"A2C39KTRMOM1XZ","Collector",1,165,"2016-06-06T06:02:41-07:00","2",2,"Stimuli/versionBstim.txt","Procedure/versionBproc.txt","Tetris",NA,"DIAGRAM","","DIAGRAM","OFF","CI_Unrel_G",282,"seqrec","No","User","RGN Test","ON","No",970,NA,NA,NA,NA,NA,NA,NA,NA
"A2C39KTRMOM1XZ","Collector",1,166,"2016-06-06T06:02:44-07:00","3",2,"Stimuli/versionBstim.txt","Procedure/versionBproc.txt","Tetris",NA,"BOMB","","BOMB","OFF","NPLI_AdHoc_G",161,"seqrec","No","User","RGN Test","ON","No",1100,NA,NA,NA,NA,NA,NA,NA,NA
"A2C39KTRMOM1XZ","Collector",1,167,"2016-06-06T06:02:47-07:00","3",2,"Stimuli/versionBstim.txt","Procedure/versionBproc.txt","Tetris",NA,"BOW","","BOW","OFF","NPCI_Unrel_G",188,"seqrec","No","User","RGN Test","ON","No",1270,NA,NA,NA,NA,NA,NA,NA,NA
"A2C39KTRMOM1XZ","Collector",1,168,"2016-06-06T06:02:50-07:00","3",2,"Stimuli/versionBstim.txt","Procedure/versionBproc.txt","Tetris",NA,"SCREWDRIVER","","SCREWDRIVER","OFF","CI_Cat_G",298,"seqrec","No","User","RGN Test","ON","No",1530,NA,NA,NA,NA,NA,NA,NA,NA
"A2C39KTRMOM1XZ","Collector",1,169,"2016-06-06T06:02:52-07:00","2",2,"Stimuli/versionBstim.txt","Procedure/versionBproc.txt","Tetris",NA,"PLUM","","PLUM","OFF","NPCI_Cat_G",195,"seqrec","No","User","RGN Test","ON","No",1130,NA,NA,NA,NA,NA,NA,NA,NA
"A2C39KTRMOM1XZ","Collector",1,170,"2016-06-06T06:02:56-07:00","4",2,"Stimuli/versionBstim.txt","Procedure/versionBproc.txt","Tetris",NA,"PLANE","","PLANE","OFF","CI_Cat_G",299,"seqrec","No","User","RGN Test","ON","No",1930,NA,NA,NA,NA,NA,NA,NA,NA
"A2C39KTRMOM1XZ","Collector",1,171,"2016-06-06T06:02:59-07:00","3",2,"Stimuli/versionBstim.txt","Procedure/versionBproc.txt","Tetris",NA,"SPIKE","","SPIKE","OFF","LI_Unrel_G",234,"seqrec","No","User","RGN Test","ON","No",1330,NA,NA,NA,NA,NA,NA,NA,NA
"A2C39KTRMOM1XZ","Collector",1,172,"2016-06-06T06:03:02-07:00","3",2,"Stimuli/versionBstim.txt","Procedure/versionBproc.txt","Tetris",NA,"YARD","","YARD","OFF","LI_Unrel_G",237,"seqrec","No","User","RGN Test","ON","Yes",1330,NA,NA,NA,NA,NA,NA,NA,NA
"A2C39KTRMOM1XZ","Collector",1,173,"2016-06-06T06:03:05-07:00","3",2,"Stimuli/versionBstim.txt","Procedure/versionBproc.txt","Tetris",NA,"THUNDER","","THUNDER","OFF","NPCI_AdHoc_G",201,"seqrec","No","User","RGN Test","ON","No",1610,NA,NA,NA,NA,NA,NA,NA,NA
"A2C39KTRMOM1XZ","Collector",1,174,"2016-06-06T06:03:09-07:00","4",2,"Stimuli/versionBstim.txt","Procedure/versionBproc.txt","Tetris",NA,"SPROUTS","","SPROUTS","OFF","NPLI_AdHoc_G",129,"seqrec","No","User","RGN Test","ON","No",1820,NA,NA,NA,NA,NA,NA,NA,NA
"A2C39KTRMOM1XZ","Collector",1,175,"2016-06-06T06:03:12-07:00","3",2,"Stimuli/versionBstim.txt","Procedure/versionBproc.txt","Tetris",NA,"LIME","","LIME","OFF","NPLI_AdHoc_G",130,"seqrec","No","User","RGN Test","ON","No",1160,NA,NA,NA,NA,NA,NA,NA,NA
"A2C39KTRMOM1XZ","Collector",1,176,"2016-06-06T06:03:15-07:00","3",2,"Stimuli/versionBstim.txt","Procedure/versionBproc.txt","Tetris",NA,"LIMOUSINE","","LIMOUSINE","OFF","LI_AdHoc_G",256,"seqrec","No","User","RGN Test","ON","Yes",1590,NA,NA,NA,NA,NA,NA,NA,NA
"A2C39KTRMOM1XZ","Collector",1,177,"2016-06-06T06:03:19-07:00","4",2,"Stimuli/versionBstim.txt","Procedure/versionBproc.txt","Tetris",NA,"DOME","","DOME","OFF","LI_Unrel_G",235,"seqrec","No","User","RGN Test","ON","Yes",1060,NA,NA,NA,NA,NA,NA,NA,NA
"A2C39KTRMOM1XZ","Collector",1,178,"2016-06-06T06:03:23-07:00","4",2,"Stimuli/versionBstim.txt","Procedure/versionBproc.txt","Tetris",NA,"FROG","","FROG","OFF","NPLI_AdHoc_G",123,"seqrec","No","User","RGN Test","ON","No",1670,NA,NA,NA,NA,NA,NA,NA,NA
"A2C39KTRMOM1XZ","Collector",1,179,"2016-06-06T06:03:26-07:00","3",2,"Stimuli/versionBstim.txt","Procedure/versionBproc.txt","Tetris",NA,"FIRE","","FIRE","OFF","LI_Unrel_G",251,"seqrec","No","User","RGN Test","ON","Yes",1330,NA,NA,NA,NA,NA,NA,NA,NA
"A2C39KTRMOM1XZ","Collector",1,180,"2016-06-06T06:03:29-07:00","3",2,"Stimuli/versionBstim.txt","Procedure/versionBproc.txt","Tetris",NA,"TEE","","TEE","OFF","LI_Unrel_G",232,"seqrec","No","User","RGN Test","ON","Yes",1190,NA,NA,NA,NA,NA,NA,NA,NA
"A2C39KTRMOM1XZ","Collector",1,181,"2016-06-06T06:03:33-07:00","4",2,"Stimuli/versionBstim.txt","Procedure/versionBproc.txt","Tetris",NA,"EGGPLANT","","EGGPLANT","OFF","LI_Cat_G",231,"seqrec","No","User","RGN Test","ON","Yes",1700,NA,NA,NA,NA,NA,NA,NA,NA
"A2C39KTRMOM1XZ","Collector",1,182,"2016-06-06T06:03:36-07:00","3",2,"Stimuli/versionBstim.txt","Procedure/versionBproc.txt","Tetris",NA,"WHIP","","WHIP","OFF","LI_Unrel_G",250,"seqrec","No","User","RGN Test","ON","No",1410,NA,NA,NA,NA,NA,NA,NA,NA
"A2C39KTRMOM1XZ","Collector",1,183,"2016-06-06T06:03:41-07:00","5",2,"Stimuli/versionBstim.txt","Procedure/versionBproc.txt","Tetris",NA,"RAIN ","","RAIN ","OFF","CI_AdHoc_G",275,"seqrec","No","User","RGN Test","ON","No",2870,NA,NA,NA,NA,NA,NA,NA,NA
"A2C39KTRMOM1XZ","Collector",1,184,"2016-06-06T06:03:44-07:00","3",2,"Stimuli/versionBstim.txt","Procedure/versionBproc.txt","Tetris",NA,"PUCK","","PUCK","OFF","LI_AdHoc_G",252,"seqrec","No","User","RGN Test","ON","Yes",1470,NA,NA,NA,NA,NA,NA,NA,NA
"A2C39KTRMOM1XZ","Collector",1,185,"2016-06-06T06:03:48-07:00","4",2,"Stimuli/versionBstim.txt","Procedure/versionBproc.txt","Tetris",NA,"CANTALOUPE","","CANTALOUPE","OFF","NPLI_Cat_G",147,"seqrec","No","User","RGN Test","ON","No",1450,NA,NA,NA,NA,NA,NA,NA,NA
"A2C39KTRMOM1XZ","Collector",1,186,"2016-06-06T06:03:51-07:00","3",2,"Stimuli/versionBstim.txt","Procedure/versionBproc.txt","Tetris",NA,"CARROT","","CARROT","OFF","CI_Cat_G",281,"seqrec","No","User","RGN Test","ON","No",1550,NA,NA,NA,NA,NA,NA,NA,NA
"A2C39KTRMOM1XZ","Collector",1,187,"2016-06-06T06:03:54-07:00","3",2,"Stimuli/versionBstim.txt","Procedure/versionBproc.txt","Tetris",NA,"EBONY","","EBONY","OFF","LI_AdHoc_G",261,"seqrec","No","User","RGN Test","ON","Yes",1670,NA,NA,NA,NA,NA,NA,NA,NA
"A2C39KTRMOM1XZ","Collector",1,188,"2016-06-06T06:03:58-07:00","4",2,"Stimuli/versionBstim.txt","Procedure/versionBproc.txt","Tetris",NA,"WOUND","","WOUND","OFF","NPCI_Unrel_G",189,"seqrec","No","User","RGN Test","ON","Yes",2120,NA,NA,NA,NA,NA,NA,NA,NA
"A2C39KTRMOM1XZ","Collector",1,189,"2016-06-06T06:04:01-07:00","3",2,"Stimuli/versionBstim.txt","Procedure/versionBproc.txt","Tetris",NA,"ELEPHANT","","ELEPHANT","OFF","NPLI_Cat_G",163,"seqrec","No","User","RGN Test","ON","No",1030,NA,NA,NA,NA,NA,NA,NA,NA
"A2C39KTRMOM1XZ","Collector",1,190,"2016-06-06T06:04:04-07:00","3",2,"Stimuli/versionBstim.txt","Procedure/versionBproc.txt","Tetris",NA,"SHADOW","","SHADOW","OFF","LI_AdHoc_G",260,"seqrec","No","User","RGN Test","ON","Yes",1580,NA,NA,NA,NA,NA,NA,NA,NA
"A2C39KTRMOM1XZ","Collector",1,191,"2016-06-06T06:04:06-07:00","2",2,"Stimuli/versionBstim.txt","Procedure/versionBproc.txt","Tetris",NA,"SHORE","","SHORE","OFF","NPLI_Unrel_G",178,"seqrec","No","User","RGN Test","ON","No",1370,NA,NA,NA,NA,NA,NA,NA,NA
"A2C39KTRMOM1XZ","Collector",1,192,"2016-06-06T06:04:09-07:00","3",2,"Stimuli/versionBstim.txt","Procedure/versionBproc.txt","Tetris",NA,"CAULIFLOWER","","CAULIFLOWER","OFF","LI_Cat_G",225,"seqrec","No","User","RGN Test","ON","Yes",1050,NA,NA,NA,NA,NA,NA,NA,NA
"A2C39KTRMOM1XZ","Collector",1,193,"2016-06-06T06:04:11-07:00","2",2,"Stimuli/versionBstim.txt","Procedure/versionBproc.txt","Tetris",NA,"VALLEY","","VALLEY","OFF","CI_Unrel_G",283,"seqrec","No","User","RGN Test","ON","No",1130,NA,NA,NA,NA,NA,NA,NA,NA
"A2C39KTRMOM1XZ","Collector",1,194,"2016-06-06T06:04:14-07:00","3",2,"Stimuli/versionBstim.txt","Procedure/versionBproc.txt","Tetris",NA,"MERCURY","","MERCURY","OFF","LI_AdHoc_G",213,"seqrec","No","User","RGN Test","ON","Yes",1840,NA,NA,NA,NA,NA,NA,NA,NA
"A2C39KTRMOM1XZ","Collector",1,195,"2016-06-06T06:04:22-07:00","8",2,"Stimuli/versionBstim.txt","Procedure/versionBproc.txt","Tetris",NA,"AIRPORT","","AIRPORT","OFF","LI_Unrel_G",247,"seqrec","No","User","RGN Test","ON","Yes",6400,NA,NA,NA,NA,NA,NA,NA,NA
"A2C39KTRMOM1XZ","Collector",1,196,"2016-06-06T06:04:28-07:00","6",2,"Stimuli/versionBstim.txt","Procedure/versionBproc.txt","Tetris",NA,"RAISIN","","RAISIN","OFF","NPLI_Cat_G",149,"seqrec","No","User","RGN Test","ON","No",4910,NA,NA,NA,NA,NA,NA,NA,NA
"A2C39KTRMOM1XZ","Collector",1,197,"2016-06-06T06:04:40-07:00","12",2,"Stimuli/versionBstim.txt","Procedure/versionBproc.txt","Tetris",NA,"PACKET","","PACKET","OFF","CI_Unrel_G",290,"seqrec","No","User","RGN Test","ON","No",1820,NA,NA,NA,NA,NA,NA,NA,NA
"A2C39KTRMOM1XZ","Collector",1,198,"2016-06-06T06:05:00-07:00","20",2,"Stimuli/versionBstim.txt","Procedure/versionBproc.txt","Tetris",NA,"STADIUM","","STADIUM","OFF","NPLI_Unrel_G",174,"seqrec","No","User","RGN Test","ON","Yes",4610,NA,NA,NA,NA,NA,NA,NA,NA
"A2C39KTRMOM1XZ","Collector",1,199,"2016-06-06T06:05:02-07:00","2",2,"Stimuli/versionBstim.txt","Procedure/versionBproc.txt","Tetris",NA,"YELL","","YELL","OFF","NPLI_AdHoc_G",152,"seqrec","No","User","RGN Test","ON","No",880,NA,NA,NA,NA,NA,NA,NA,NA
"A2C39KTRMOM1XZ","Collector",1,200,"2016-06-06T06:05:05-07:00","3",2,"Stimuli/versionBstim.txt","Procedure/versionBproc.txt","Tetris",NA,"GOAT","","GOAT","OFF","NPLI_Cat_G",166,"seqrec","No","User","RGN Test","ON","No",900,NA,NA,NA,NA,NA,NA,NA,NA
"A2C39KTRMOM1XZ","Collector",1,201,"2016-06-06T06:05:07-07:00","2",2,"Stimuli/versionBstim.txt","Procedure/versionBproc.txt","Tetris",NA,"CAGE","","CAGE","OFF","NPCI_Unrel_G",207,"seqrec","No","User","RGN Test","ON","No",870,NA,NA,NA,NA,NA,NA,NA,NA
"A2C39KTRMOM1XZ","Collector",1,202,"2016-06-06T06:05:12-07:00","5",2,"Stimuli/versionBstim.txt","Procedure/versionBproc.txt","Tetris",NA,"TOMATO","","TOMATO","OFF","CI_Cat_G",279,"seqrec","No","User","RGN Test","ON","No",1580,NA,NA,NA,NA,NA,NA,NA,NA
"A2C39KTRMOM1XZ","Collector",1,203,"2016-06-06T06:05:16-07:00","4",2,"Stimuli/versionBstim.txt","Procedure/versionBproc.txt","Tetris",NA,"TOWN","","TOWN","OFF","NPCI_Unrel_G",187,"seqrec","No","User","RGN Test","ON","No",1530,NA,NA,NA,NA,NA,NA,NA,NA
"A2C39KTRMOM1XZ","Collector",1,204,"2016-06-06T06:05:27-07:00","11",2,"Stimuli/versionBstim.txt","Procedure/versionBproc.txt","Tetris",NA,"SHEEP","","SHEEP","OFF","NPLI_Cat_G",165,"seqrec","No","User","RGN Test","ON","No",4870,NA,NA,NA,NA,NA,NA,NA,NA
"A2C39KTRMOM1XZ","Collector",1,205,"2016-06-06T06:05:30-07:00","3",2,"Stimuli/versionBstim.txt","Procedure/versionBproc.txt","Tetris",NA,"FATHER","","FATHER","OFF","NPLI_Unrel_G",175,"seqrec","No","User","RGN Test","ON","No",1120,NA,NA,NA,NA,NA,NA,NA,NA
"A2C39KTRMOM1XZ","Collector",1,206,"2016-06-06T06:05:39-07:00","9",2,"Stimuli/versionBstim.txt","Procedure/versionBproc.txt","Tetris",NA,"NIGHT","","NIGHT","OFF","CI_AdHoc_G",293,"seqrec","No","User","RGN Test","ON","No",4450,NA,NA,NA,NA,NA,NA,NA,NA
"A2C39KTRMOM1XZ","Collector",1,207,"2016-06-06T06:05:42-07:00","3",2,"Stimuli/versionBstim.txt","Procedure/versionBproc.txt","Tetris",NA,"RAT","","RAT","OFF","NPLI_Cat_G",164,"seqrec","No","User","RGN Test","ON","No",770,NA,NA,NA,NA,NA,NA,NA,NA
"A2C39KTRMOM1XZ","Collector",1,208,"2016-06-06T06:05:55-07:00","13",2,"Stimuli/versionBstim.txt","Procedure/versionBproc.txt","Tetris",NA,"MILK","","MILK","OFF","CI_AdHoc_G",276,"seqrec","No","User","RGN Test","ON","No",5780,NA,NA,NA,NA,NA,NA,NA,NA
"A2C39KTRMOM1XZ","Collector",1,209,"2016-06-06T06:05:58-07:00","3",2,"Stimuli/versionBstim.txt","Procedure/versionBproc.txt","Tetris",NA,"SANDER","","SANDER","OFF","LI_Cat_G",268,"seqrec","No","User","RGN Test","ON","Yes",1530,NA,NA,NA,NA,NA,NA,NA,NA
"A2C39KTRMOM1XZ","Collector",1,210,"2016-06-06T06:06:01-07:00","3",2,"Stimuli/versionBstim.txt","Procedure/versionBproc.txt","Tetris",NA,"SCREWS","","SCREWS","OFF","LI_Cat_G",264,"seqrec","No","User","RGN Test","ON","Yes",980,NA,NA,NA,NA,NA,NA,NA,NA
"A2C39KTRMOM1XZ","Collector",1,211,"2016-06-06T06:06:04-07:00","3",2,"Stimuli/versionBstim.txt","Procedure/versionBproc.txt","Tetris",NA,"ASH","","ASH","OFF","LI_AdHoc_G",258,"seqrec","No","User","RGN Test","ON","Yes",990,NA,NA,NA,NA,NA,NA,NA,NA
"A2C39KTRMOM1XZ","Collector",1,212,"2016-06-06T06:06:08-07:00","4",2,"Stimuli/versionBstim.txt","Procedure/versionBproc.txt","Tetris",NA,"CHERRY","","CHERRY","OFF","NPLI_Cat_G",143,"seqrec","No","User","RGN Test","ON","No",2500,NA,NA,NA,NA,NA,NA,NA,NA
"A2C39KTRMOM1XZ","Collector",1,213,"2016-06-06T06:06:11-07:00","3",2,"Stimuli/versionBstim.txt","Procedure/versionBproc.txt","Tetris",NA,"VAULT","","VAULT","OFF","CI_Unrel_G",289,"seqrec","No","User","RGN Test","ON","No",1110,NA,NA,NA,NA,NA,NA,NA,NA
"A2C39KTRMOM1XZ","Collector",1,214,"2016-06-06T06:06:15-07:00","4",2,"Stimuli/versionBstim.txt","Procedure/versionBproc.txt","Tetris",NA,"RAVEN","","RAVEN","OFF","CI_AdHoc_G",295,"seqrec","No","User","RGN Test","ON","No",2020,NA,NA,NA,NA,NA,NA,NA,NA
"A2C39KTRMOM1XZ","Collector",1,215,"2016-06-06T06:06:17-07:00","2",2,"Stimuli/versionBstim.txt","Procedure/versionBproc.txt","Tetris",NA,"ART","","ART","OFF","NPCI_Unrel_G",211,"seqrec","No","User","RGN Test","ON","No",990,NA,NA,NA,NA,NA,NA,NA,NA
"A2C39KTRMOM1XZ","Collector",1,216,"2016-06-06T06:06:39-07:00","22",2,"Stimuli/versionBstim.txt","Procedure/versionBproc.txt","Tetris",NA,"TENNIS BALL","","TENNIS BALL","OFF","NPLI_AdHoc_G",127,"seqrec","No","User","RGN Test","ON","No",2900,NA,NA,NA,NA,NA,NA,NA,NA
"A2C39KTRMOM1XZ","Collector",1,217,"2016-06-06T06:06:43-07:00","4",2,"Stimuli/versionBstim.txt","Procedure/versionBproc.txt","Tetris",NA,"CAT","","CAT","OFF","NPCI_Cat_G",202,"seqrec","No","User","RGN Test","ON","No",2690,NA,NA,NA,NA,NA,NA,NA,NA
"A2C39KTRMOM1XZ","Collector",1,218,"2016-06-06T06:06:46-07:00","3",2,"Stimuli/versionBstim.txt","Procedure/versionBproc.txt","Tetris",NA,"FUR","","FUR","OFF","NPCI_Unrel_G",210,"seqrec","No","User","RGN Test","ON","No",1090,NA,NA,NA,NA,NA,NA,NA,NA
"A2C39KTRMOM1XZ","Collector",1,219,"2016-06-06T06:06:51-07:00","5",2,"Stimuli/versionBstim.txt","Procedure/versionBproc.txt","Tetris",NA,"WRECK","","WRECK","OFF","LI_Unrel_G",242,"seqrec","No","User","RGN Test","ON","Yes",3580,NA,NA,NA,NA,NA,NA,NA,NA
"A2C39KTRMOM1XZ","Collector",1,220,"2016-06-06T06:06:53-07:00","2",2,"Stimuli/versionBstim.txt","Procedure/versionBproc.txt","Tetris",NA,"PEA","","PEA","OFF","CI_Cat_G",277,"seqrec","No","User","RGN Test","ON","No",1260,NA,NA,NA,NA,NA,NA,NA,NA
"A2C39KTRMOM1XZ","Collector",1,221,"2016-06-06T06:06:56-07:00","3",2,"Stimuli/versionBstim.txt","Procedure/versionBproc.txt","Tetris",NA,"COW","","COW","OFF","NPCI_Cat_G",203,"seqrec","No","User","RGN Test","ON","No",1660,NA,NA,NA,NA,NA,NA,NA,NA
"A2C39KTRMOM1XZ","Collector",1,222,"2016-06-06T06:07:03-07:00","7",2,"Stimuli/versionBstim.txt","Procedure/versionBproc.txt","Tetris",NA,"MOVIE","","MOVIE","OFF","NPLI_Unrel_G",179,"seqrec","No","User","RGN Test","ON","No",2750,NA,NA,NA,NA,NA,NA,NA,NA
"A2C39KTRMOM1XZ","Collector",1,223,"2016-06-06T06:07:09-07:00","6",2,"Stimuli/versionBstim.txt","Procedure/versionBproc.txt","Tetris",NA,"PLIERS","","PLIERS","OFF","CI_Cat_G",300,"seqrec","No","User","RGN Test","ON","No",4870,NA,NA,NA,NA,NA,NA,NA,NA
"A2C39KTRMOM1XZ","Collector",1,224,"2016-06-06T06:07:12-07:00","3",2,"Stimuli/versionBstim.txt","Procedure/versionBproc.txt","Tetris",NA,"CREPE","","CREPE","OFF","LI_Unrel_G",246,"seqrec","No","User","RGN Test","ON","Yes",1100,NA,NA,NA,NA,NA,NA,NA,NA
"A2C39KTRMOM1XZ","Collector",1,225,"2016-06-06T06:07:15-07:00","3",2,"Stimuli/versionBstim.txt","Procedure/versionBproc.txt","Tetris",NA,"DRUMS","","DRUMS","OFF","NPLI_AdHoc_G",157,"seqrec","No","User","RGN Test","ON","No",1280,NA,NA,NA,NA,NA,NA,NA,NA
"A2C39KTRMOM1XZ","Collector",1,226,"2016-06-06T06:07:17-07:00","2",2,"Stimuli/versionBstim.txt","Procedure/versionBproc.txt","Tetris",NA,"CAKE","","CAKE","OFF","NPLI_Unrel_G",173,"seqrec","No","User","RGN Test","ON","No",1070,NA,NA,NA,NA,NA,NA,NA,NA
"A2C39KTRMOM1XZ","Collector",1,227,"2016-06-06T06:07:19-07:00","2",2,"Stimuli/versionBstim.txt","Procedure/versionBproc.txt","Tetris",NA,"COMEDY","","COMEDY","OFF","CI_Unrel_G",286,"seqrec","No","User","RGN Test","ON","No",1040,NA,NA,NA,NA,NA,NA,NA,NA
"A2C39KTRMOM1XZ","Collector",1,228,"2016-06-06T06:07:22-07:00","3",2,"Stimuli/versionBstim.txt","Procedure/versionBproc.txt","Tetris",NA,"GASOLINE","","GASOLINE","OFF","LI_AdHoc_G",219,"seqrec","No","User","RGN Test","ON","Yes",1110,NA,NA,NA,NA,NA,NA,NA,NA
"A2C39KTRMOM1XZ","Collector",1,229,"2016-06-06T06:07:25-07:00","3",2,"Stimuli/versionBstim.txt","Procedure/versionBproc.txt","Tetris",NA,"HOT CHOCOLATE","","HOT CHOCOLATE","OFF","LI_AdHoc_G",216,"seqrec","No","User","RGN Test","ON","Yes",2020,NA,NA,NA,NA,NA,NA,NA,NA
"A2C39KTRMOM1XZ","Collector",1,230,"2016-06-06T06:07:29-07:00","4",2,"Stimuli/versionBstim.txt","Procedure/versionBproc.txt","Tetris",NA,"SPINACH","","SPINACH","OFF","CI_Cat_G",280,"seqrec","No","User","RGN Test","ON","No",1660,NA,NA,NA,NA,NA,NA,NA,NA
"A2C39KTRMOM1XZ","Collector",1,231,"2016-06-06T06:07:32-07:00","3",2,"Stimuli/versionBstim.txt","Procedure/versionBproc.txt","Tetris",NA,"FOX","","FOX","OFF","NPLI_Cat_G",170,"seqrec","No","User","RGN Test","ON","No",1470,NA,NA,NA,NA,NA,NA,NA,NA
"A2C39KTRMOM1XZ","Collector",1,232,"2016-06-06T06:07:34-07:00","2",2,"Stimuli/versionBstim.txt","Procedure/versionBproc.txt","Tetris",NA,"INSECT","","INSECT","OFF","NPLI_Unrel_G",137,"seqrec","No","User","RGN Test","ON","No",1420,NA,NA,NA,NA,NA,NA,NA,NA
"A2C39KTRMOM1XZ","Collector",1,233,"2016-06-06T06:07:39-07:00","5",2,"Stimuli/versionBstim.txt","Procedure/versionBproc.txt","Tetris",NA,"PIPE","","PIPE","OFF","NPLI_Unrel_G",139,"seqrec","No","User","RGN Test","ON","No",3630,NA,NA,NA,NA,NA,NA,NA,NA
"A2C39KTRMOM1XZ","Collector",1,234,"2016-06-06T06:07:41-07:00","2",2,"Stimuli/versionBstim.txt","Procedure/versionBproc.txt","Tetris",NA,"ASPHALT","","ASPHALT","OFF","LI_AdHoc_G",254,"seqrec","No","User","RGN Test","ON","Yes",1430,NA,NA,NA,NA,NA,NA,NA,NA
"A2C39KTRMOM1XZ","Collector",1,235,"2016-06-06T06:07:44-07:00","3",2,"Stimuli/versionBstim.txt","Procedure/versionBproc.txt","Tetris",NA,"HAMMER","","HAMMER","OFF","CI_Cat_G",301,"seqrec","No","User","RGN Test","ON","No",1630,NA,NA,NA,NA,NA,NA,NA,NA
"A2C39KTRMOM1XZ","Collector",1,236,"2016-06-06T06:07:46-07:00","2",2,"Stimuli/versionBstim.txt","Procedure/versionBproc.txt","Tetris",NA,"DONKEY","","DONKEY","OFF","NPLI_Cat_G",168,"seqrec","No","User","RGN Test","ON","No",1140,NA,NA,NA,NA,NA,NA,NA,NA
"A2C39KTRMOM1XZ","Collector",1,237,"2016-06-06T06:07:48-07:00","2",2,"Stimuli/versionBstim.txt","Procedure/versionBproc.txt","Tetris",NA,"JUNGLE","","JUNGLE","OFF","NPLI_AdHoc_G",126,"seqrec","No","User","RGN Test","ON","No",1130,NA,NA,NA,NA,NA,NA,NA,NA
"A2C39KTRMOM1XZ","Collector",1,238,"2016-06-06T06:07:50-07:00","2",2,"Stimuli/versionBstim.txt","Procedure/versionBproc.txt","Tetris",NA,"HINGE","","HINGE","OFF","LI_Cat_G",271,"seqrec","No","User","RGN Test","ON","Yes",1450,NA,NA,NA,NA,NA,NA,NA,NA
"A2C39KTRMOM1XZ","Collector",1,239,"2016-06-06T06:07:52-07:00","2",2,"Stimuli/versionBstim.txt","Procedure/versionBproc.txt","Tetris",NA,"SWEAT","","SWEAT","OFF","LI_AdHoc_G",214,"seqrec","No","User","RGN Test","ON","No",1120,NA,NA,NA,NA,NA,NA,NA,NA
"A2C39KTRMOM1XZ","Collector",1,240,"2016-06-06T06:07:54-07:00","2",2,"Stimuli/versionBstim.txt","Procedure/versionBproc.txt","Tetris",NA,"PUPPY","","PUPPY","OFF","LI_Unrel_G",245,"seqrec","No","User","RGN Test","ON","Yes",1010,NA,NA,NA,NA,NA,NA,NA,NA
"A2C39KTRMOM1XZ","Collector",1,241,"2016-06-06T06:07:57-07:00","3",2,"Stimuli/versionBstim.txt","Procedure/versionBproc.txt","Tetris",NA,"LEOPARD","","LEOPARD","OFF","NPLI_Cat_G",169,"seqrec","No","User","RGN Test","ON","Yes",1560,NA,NA,NA,NA,NA,NA,NA,NA
"A2C39KTRMOM1XZ","Collector",1,242,"2016-06-06T06:07:59-07:00","2",2,"Stimuli/versionBstim.txt","Procedure/versionBproc.txt","Tetris",NA,"INK","","INK","OFF","LI_AdHoc_G",257,"seqrec","No","User","RGN Test","ON","Yes",970,NA,NA,NA,NA,NA,NA,NA,NA
"A2C39KTRMOM1XZ","Collector",1,243,"2016-06-06T06:08:01-07:00","2",2,"Stimuli/versionBstim.txt","Procedure/versionBproc.txt","Tetris",NA,"MALE","","MALE","OFF","LI_Unrel_G",248,"seqrec","No","User","RGN Test","ON","No",1840,NA,NA,NA,NA,NA,NA,NA,NA
"A2C39KTRMOM1XZ","Collector",1,244,"2016-06-06T06:08:04-07:00","3",2,"Stimuli/versionBstim.txt","Procedure/versionBproc.txt","Tetris",NA,"ASPARAGUS","","ASPARAGUS","OFF","LI_Cat_G",223,"seqrec","No","User","RGN Test","ON","Yes",2140,NA,NA,NA,NA,NA,NA,NA,NA
"A2C39KTRMOM1XZ","Collector",1,245,"2016-06-06T06:08:06-07:00","2",2,"Stimuli/versionBstim.txt","Procedure/versionBproc.txt","Tetris",NA,"TRACTOR","","TRACTOR","OFF","NPLI_AdHoc_G",156,"seqrec","No","User","RGN Test","ON","No",1240,NA,NA,NA,NA,NA,NA,NA,NA
"A2C39KTRMOM1XZ","Collector",1,246,"2016-06-06T06:08:08-07:00","2",2,"Stimuli/versionBstim.txt","Procedure/versionBproc.txt","Tetris",NA,"SUNRISE","","SUNRISE","OFF","NPLI_Unrel_G",181,"seqrec","No","User","RGN Test","ON","No",780,NA,NA,NA,NA,NA,NA,NA,NA
"A2C39KTRMOM1XZ","Collector",1,247,"2016-06-06T06:08:10-07:00","2",2,"Stimuli/versionBstim.txt","Procedure/versionBproc.txt","Tetris",NA,"EMERALD","","EMERALD","OFF","NPCI_AdHoc_G",183,"seqrec","No","User","RGN Test","ON","No",1390,NA,NA,NA,NA,NA,NA,NA,NA
"A2C39KTRMOM1XZ","Collector",1,248,"2016-06-06T06:08:12-07:00","2",2,"Stimuli/versionBstim.txt","Procedure/versionBproc.txt","Tetris",NA,"GRASS","","GRASS","OFF","NPCI_AdHoc_G",182,"seqrec","No","User","RGN Test","ON","No",910,NA,NA,NA,NA,NA,NA,NA,NA
"A2C39KTRMOM1XZ","Collector",1,249,"2016-06-06T06:08:16-07:00","4",2,"Stimuli/versionBstim.txt","Procedure/versionBproc.txt","Tetris",NA,"GARAGE","","GARAGE","OFF","CI_Unrel_G",285,"seqrec","No","User","RGN Test","ON","No",2550,NA,NA,NA,NA,NA,NA,NA,NA
"A2C39KTRMOM1XZ","Collector",1,250,"2016-06-06T06:08:18-07:00","2",2,"Stimuli/versionBstim.txt","Procedure/versionBproc.txt","Tetris",NA,"JUICE","","JUICE","OFF","CI_AdHoc_G",274,"seqrec","No","User","RGN Test","ON","No",810,NA,NA,NA,NA,NA,NA,NA,NA
"A2C39KTRMOM1XZ","Collector",1,251,"2016-06-06T06:08:20-07:00","2",2,"Stimuli/versionBstim.txt","Procedure/versionBproc.txt","Tetris",NA,"SAWHORSE","","SAWHORSE","OFF","LI_Cat_G",265,"seqrec","No","User","RGN Test","ON","Yes",1510,NA,NA,NA,NA,NA,NA,NA,NA
"A2C39KTRMOM1XZ","Collector",1,252,"2016-06-06T06:08:24-07:00","4",2,"Stimuli/versionBstim.txt","Procedure/versionBproc.txt","Tetris",NA,"GHOUL","","GHOUL","OFF","LI_Unrel_G",233,"seqrec","No","User","RGN Test","ON","Yes",840,NA,NA,NA,NA,NA,NA,NA,NA
"A2C39KTRMOM1XZ","Collector",1,253,"2016-06-06T06:08:27-07:00","3",2,"Stimuli/versionBstim.txt","Procedure/versionBproc.txt","Tetris",NA,"TRUMPET","","TRUMPET","OFF","NPLI_AdHoc_G",155,"seqrec","No","User","RGN Test","ON","No",1900,NA,NA,NA,NA,NA,NA,NA,NA
"A2C39KTRMOM1XZ","Collector",1,254,"2016-06-06T06:08:30-07:00","3",2,"Stimuli/versionBstim.txt","Procedure/versionBproc.txt","Tetris",NA,"RAINBOW","","RAINBOW","OFF","LI_Unrel_G",243,"seqrec","No","User","RGN Test","ON","Yes",2010,NA,NA,NA,NA,NA,NA,NA,NA
"A2C39KTRMOM1XZ","Collector",1,255,"2016-06-06T06:08:32-07:00","2",2,"Stimuli/versionBstim.txt","Procedure/versionBproc.txt","Tetris",NA,"MOUSE","","MOUSE","OFF","NPCI_Cat_G",206,"seqrec","No","User","RGN Test","ON","No",1450,NA,NA,NA,NA,NA,NA,NA,NA
"A2C39KTRMOM1XZ","Collector",1,256,"2016-06-06T06:08:34-07:00","2",2,"Stimuli/versionBstim.txt","Procedure/versionBproc.txt","Tetris",NA,"CHAIN SAW","","CHAIN SAW","OFF","NPLI_AdHoc_G",154,"seqrec","No","User","RGN Test","ON","Yes",1600,NA,NA,NA,NA,NA,NA,NA,NA
"A2C39KTRMOM1XZ","Collector",1,257,"2016-06-06T06:08:39-07:00","5",2,"Stimuli/versionBstim.txt","Procedure/versionBproc.txt","Tetris",NA,"BROCCOLI","","BROCCOLI","OFF","NPCI_AdHoc_G",185,"seqrec","No","User","RGN Test","ON","Yes",3880,NA,NA,NA,NA,NA,NA,NA,NA
"A2C39KTRMOM1XZ","Collector",1,258,"2016-06-06T06:08:41-07:00","2",2,"Stimuli/versionBstim.txt","Procedure/versionBproc.txt","Tetris",NA,"ENGINE","","ENGINE","OFF","NPLI_Unrel_G",177,"seqrec","No","User","RGN Test","ON","No",1090,NA,NA,NA,NA,NA,NA,NA,NA
"A2C39KTRMOM1XZ","Collector",1,259,"2016-06-06T06:08:42-07:00","1",2,"Stimuli/versionBstim.txt","Procedure/versionBproc.txt","Tetris",NA,"BANANA","","BANANA","OFF","NPCI_Cat_G",193,"seqrec","No","User","RGN Test","ON","No",710,NA,NA,NA,NA,NA,NA,NA,NA
"A2C39KTRMOM1XZ","Collector",1,260,"2016-06-06T06:08:46-07:00","4",2,"Stimuli/versionBstim.txt","Procedure/versionBproc.txt","Tetris",NA,"ONION","","ONION","OFF","LI_Cat_G",227,"seqrec","No","User","RGN Test","ON","Yes",2340,NA,NA,NA,NA,NA,NA,NA,NA
"A2C39KTRMOM1XZ","Collector",1,261,"2016-06-06T06:08:48-07:00","2",2,"Stimuli/versionBstim.txt","Procedure/versionBproc.txt","Tetris",NA,"AWL","","AWL","OFF","LI_Cat_G",267,"seqrec","No","User","RGN Test","ON","Yes",810,NA,NA,NA,NA,NA,NA,NA,NA
"A2C39KTRMOM1XZ","Collector",1,262,"2016-06-06T06:08:49-07:00","1",2,"Stimuli/versionBstim.txt","Procedure/versionBproc.txt","Tetris",NA,"LICORICE","","LICORICE","OFF","LI_AdHoc_G",253,"seqrec","No","User","RGN Test","ON","Yes",940,NA,NA,NA,NA,NA,NA,NA,NA
"A2C39KTRMOM1XZ","Collector",1,263,"2016-06-06T06:08:52-07:00","3",2,"Stimuli/versionBstim.txt","Procedure/versionBproc.txt","Tetris",NA,"CONE","","CONE","OFF","NPLI_Unrel_G",136,"seqrec","No","User","RGN Test","ON","No",1340,NA,NA,NA,NA,NA,NA,NA,NA
"A2C39KTRMOM1XZ","Collector",1,264,"2016-06-06T06:08:54-07:00","2",2,"Stimuli/versionBstim.txt","Procedure/versionBproc.txt","Tetris",NA,"MUD","","MUD","OFF","NPCI_Unrel_G",209,"seqrec","No","User","RGN Test","ON","No",1140,NA,NA,NA,NA,NA,NA,NA,NA
"A2C39KTRMOM1XZ","Collector",1,265,"2016-06-06T06:08:55-07:00","1",2,"Stimuli/versionBstim.txt","Procedure/versionBproc.txt","Tetris",NA,"REPTILE","","REPTILE","OFF","LI_Unrel_G",241,"seqrec","No","User","RGN Test","ON","No",870,NA,NA,NA,NA,NA,NA,NA,NA
"A2C39KTRMOM1XZ","Collector",1,266,"2016-06-06T06:08:58-07:00","3",2,"Stimuli/versionBstim.txt","Procedure/versionBproc.txt","Tetris",NA,"PAPERCLIP","","PAPERCLIP","OFF","LI_Unrel_G",239,"seqrec","No","User","RGN Test","ON","No",1040,NA,NA,NA,NA,NA,NA,NA,NA
"A2C39KTRMOM1XZ","Collector",1,267,"2016-06-06T06:09:00-07:00","2",2,"Stimuli/versionBstim.txt","Procedure/versionBproc.txt","Tetris",NA,"ORANGE","","ORANGE","OFF","NPCI_Cat_G",192,"seqrec","No","User","RGN Test","ON","No",1350,NA,NA,NA,NA,NA,NA,NA,NA
"A2C39KTRMOM1XZ","Collector",1,268,"2016-06-06T06:09:04-07:00","4",2,"Stimuli/versionBstim.txt","Procedure/versionBproc.txt","Tetris",NA,"VISE","","VISE","OFF","LI_Cat_G",270,"seqrec","No","User","RGN Test","ON","Yes",1760,NA,NA,NA,NA,NA,NA,NA,NA
"A2C39KTRMOM1XZ","Collector",1,269,"2016-06-06T06:09:07-07:00","3",2,"Stimuli/versionBstim.txt","Procedure/versionBproc.txt","Tetris",NA,"PIG","","PIG","OFF","NPCI_Cat_G",205,"seqrec","No","User","RGN Test","ON","No",1370,NA,NA,NA,NA,NA,NA,NA,NA
"A2C39KTRMOM1XZ","Collector",1,270,"2016-06-06T06:09:10-07:00","3",2,"Stimuli/versionBstim.txt","Procedure/versionBproc.txt","Tetris",NA,"SIREN","","SIREN","OFF","NPCI_AdHoc_G",199,"seqrec","No","User","RGN Test","ON","No",1070,NA,NA,NA,NA,NA,NA,NA,NA
"A2C39KTRMOM1XZ","Collector",1,271,"2016-06-06T06:09:14-07:00","4",2,"Stimuli/versionBstim.txt","Procedure/versionBproc.txt","Tetris",NA,"STRAWBERRY","","STRAWBERRY","OFF","NPLI_Cat_G",146,"seqrec","No","User","RGN Test","ON","No",2500,NA,NA,NA,NA,NA,NA,NA,NA
"A2C39KTRMOM1XZ","Collector",1,272,"2016-06-06T06:09:18-07:00","4",2,"Stimuli/versionBstim.txt","Procedure/versionBproc.txt","Tetris",NA,"WRENCH","","WRENCH","OFF","LI_Cat_G",263,"seqrec","No","User","RGN Test","ON","Yes",3570,NA,NA,NA,NA,NA,NA,NA,NA
"A2C39KTRMOM1XZ","Collector",1,273,"2016-06-06T06:09:21-07:00","3",2,"Stimuli/versionBstim.txt","Procedure/versionBproc.txt","Tetris",NA,"LEAVES","","LEAVES","OFF","NPLI_AdHoc_G",122,"seqrec","No","User","RGN Test","ON","No",1370,NA,NA,NA,NA,NA,NA,NA,NA
"A2C39KTRMOM1XZ","Collector",1,274,"2016-06-06T06:09:23-07:00","2",2,"Stimuli/versionBstim.txt","Procedure/versionBproc.txt","Tetris",NA,"COAL","","COAL","OFF","CI_AdHoc_G",292,"seqrec","No","User","RGN Test","ON","No",810,NA,NA,NA,NA,NA,NA,NA,NA
"A2C39KTRMOM1XZ","Collector",1,275,"2016-06-06T06:09:25-07:00","2",2,"Stimuli/versionBstim.txt","Procedure/versionBproc.txt","Tetris",NA,"POISON","","POISON","OFF","NPLI_Unrel_G",176,"seqrec","No","User","RGN Test","ON","No",820,NA,NA,NA,NA,NA,NA,NA,NA
"A2C39KTRMOM1XZ","Collector",1,276,"2016-06-06T06:09:27-07:00","2",2,"Stimuli/versionBstim.txt","Procedure/versionBproc.txt","Tetris",NA,"LIMA BEANS","","LIMA BEANS","OFF","LI_Cat_G",226,"seqrec","No","User","RGN Test","ON","No",1290,NA,NA,NA,NA,NA,NA,NA,NA
"A2C39KTRMOM1XZ","Collector",1,277,"2016-06-06T06:09:28-07:00","1",2,"Stimuli/versionBstim.txt","Procedure/versionBproc.txt","Tetris",NA,"HUCKLEBERRY","","HUCKLEBERRY","OFF","NPLI_Cat_G",151,"seqrec","No","User","RGN Test","ON","No",860,NA,NA,NA,NA,NA,NA,NA,NA
"A2C39KTRMOM1XZ","Collector",1,278,"2016-06-06T06:09:31-07:00","3",2,"Stimuli/versionBstim.txt","Procedure/versionBproc.txt","Tetris",NA,"PUMPKIN","","PUMPKIN","OFF","LI_Cat_G",230,"seqrec","No","User","RGN Test","ON","Yes",1840,NA,NA,NA,NA,NA,NA,NA,NA
"A2C39KTRMOM1XZ","Collector",1,279,"2016-06-06T06:09:33-07:00","2",2,"Stimuli/versionBstim.txt","Procedure/versionBproc.txt","Tetris",NA,"LEMON","","LEMON","OFF","NPCI_Cat_G",196,"seqrec","No","User","RGN Test","ON","No",1250,NA,NA,NA,NA,NA,NA,NA,NA
"A2C39KTRMOM1XZ","Collector",1,280,"2016-06-06T06:09:35-07:00","2",2,"Stimuli/versionBstim.txt","Procedure/versionBproc.txt","Tetris",NA,"BUFFALO","","BUFFALO","OFF","NPLI_Cat_G",171,"seqrec","No","User","RGN Test","ON","No",1400,NA,NA,NA,NA,NA,NA,NA,NA
"A2C39KTRMOM1XZ","Collector",1,281,"2016-06-06T06:09:37-07:00","2",2,"Stimuli/versionBstim.txt","Procedure/versionBproc.txt","Tetris",NA,"PEDAL","","PEDAL","OFF","NPCI_Unrel_G",191,"seqrec","No","User","RGN Test","ON","No",1480,NA,NA,NA,NA,NA,NA,NA,NA
"A2C39KTRMOM1XZ","Collector",1,282,"2016-06-06T06:09:39-07:00","2",2,"Stimuli/versionBstim.txt","Procedure/versionBproc.txt","Tetris",NA,"MINT","","MINT","OFF","NPCI_AdHoc_G",186,"seqrec","No","User","RGN Test","ON","No",780,NA,NA,NA,NA,NA,NA,NA,NA
"A2C39KTRMOM1XZ","Collector",1,283,"2016-06-06T06:09:41-07:00","2",2,"Stimuli/versionBstim.txt","Procedure/versionBproc.txt","Tetris",NA,"PARTY","","PARTY","OFF","NPLI_AdHoc_G",158,"seqrec","No","User","RGN Test","ON","No",890,NA,NA,NA,NA,NA,NA,NA,NA
"A2C39KTRMOM1XZ","Collector",1,284,"2016-06-06T06:09:45-07:00","4",2,"Stimuli/versionBstim.txt","Procedure/versionBproc.txt","Tetris",NA,"MOSS","","MOSS","OFF","NPLI_AdHoc_G",124,"seqrec","No","User","RGN Test","ON","Yes",2580,NA,NA,NA,NA,NA,NA,NA,NA
"A2C39KTRMOM1XZ","Collector",1,285,"2016-06-06T06:09:47-07:00","2",2,"Stimuli/versionBstim.txt","Procedure/versionBproc.txt","Tetris",NA,"SHAMROCK","","SHAMROCK","OFF","NPLI_AdHoc_G",125,"seqrec","No","User","RGN Test","ON","No",1220,NA,NA,NA,NA,NA,NA,NA,NA
"A2C39KTRMOM1XZ","Collector",1,286,"2016-06-06T06:09:48-07:00","1",2,"Stimuli/versionBstim.txt","Procedure/versionBproc.txt","Tetris",NA,"WHITE","","WHITE","OFF","CI_Unrel_G",288,"seqrec","No","User","RGN Test","ON","No",640,NA,NA,NA,NA,NA,NA,NA,NA
"A2C39KTRMOM1XZ","Collector",1,287,"2016-06-06T06:09:51-07:00","3",2,"Stimuli/versionBstim.txt","Procedure/versionBproc.txt","Tetris",NA,"CREAM","","CREAM","OFF","LI_AdHoc_G",221,"seqrec","No","User","RGN Test","ON","Yes",1660,NA,NA,NA,NA,NA,NA,NA,NA
"A2C39KTRMOM1XZ","Collector",1,288,"2016-06-06T06:09:53-07:00","2",2,"Stimuli/versionBstim.txt","Procedure/versionBproc.txt","Tetris",NA,"VINEGAR","","VINEGAR","OFF","LI_AdHoc_G",220,"seqrec","No","User","RGN Test","ON","Yes",1120,NA,NA,NA,NA,NA,NA,NA,NA
"A2C39KTRMOM1XZ","Collector",1,289,"2016-06-06T06:09:55-07:00","2",2,"Stimuli/versionBstim.txt","Procedure/versionBproc.txt","Tetris",NA,"TANGERINE","","TANGERINE","OFF","NPLI_Cat_G",144,"seqrec","No","User","RGN Test","ON","No",1180,NA,NA,NA,NA,NA,NA,NA,NA
"A2C39KTRMOM1XZ","Collector",1,290,"2016-06-06T06:09:59-07:00","4",2,"Stimuli/versionBstim.txt","Procedure/versionBproc.txt","Tetris",NA,"PYRAMID","","PYRAMID","OFF","NPLI_Unrel_G",133,"seqrec","No","User","RGN Test","ON","No",930,NA,NA,NA,NA,NA,NA,NA,NA
"A2C39KTRMOM1XZ","Collector",1,291,"2016-06-06T06:10:01-07:00","2",2,"Stimuli/versionBstim.txt","Procedure/versionBproc.txt","Tetris",NA,"SCOUT","","SCOUT","OFF","LI_Unrel_G",236,"seqrec","No","User","RGN Test","ON","No",850,NA,NA,NA,NA,NA,NA,NA,NA
"A2C39KTRMOM1XZ","Collector",1,292,"2016-06-06T06:10:03-07:00","2",2,"Stimuli/versionBstim.txt","Procedure/versionBproc.txt","Tetris",NA,"WINE","","WINE","OFF","LI_AdHoc_G",215,"seqrec","No","User","RGN Test","ON","No",1130,NA,NA,NA,NA,NA,NA,NA,NA
"A2C39KTRMOM1XZ","Collector",1,293,"2016-06-06T06:10:05-07:00","2",2,"Stimuli/versionBstim.txt","Procedure/versionBproc.txt","Tetris",NA,"COAST","","COAST","OFF","NPCI_Unrel_G",208,"seqrec","No","User","RGN Test","ON","No",750,NA,NA,NA,NA,NA,NA,NA,NA
"A2C39KTRMOM1XZ","Collector",1,294,"2016-06-06T06:10:07-07:00","2",2,"Stimuli/versionBstim.txt","Procedure/versionBproc.txt","Tetris",NA,"NECTARINE","","NECTARINE","OFF","NPLI_Cat_G",150,"seqrec","No","User","RGN Test","ON","No",1160,NA,NA,NA,NA,NA,NA,NA,NA
"A2C39KTRMOM1XZ","Collector",1,295,"2016-06-06T06:10:09-07:00","2",2,"Stimuli/versionBstim.txt","Procedure/versionBproc.txt","Tetris",NA,"PINEAPPLE","","PINEAPPLE","OFF","NPLI_Cat_G",145,"seqrec","No","User","RGN Test","ON","No",730,NA,NA,NA,NA,NA,NA,NA,NA
"A2C39KTRMOM1XZ","Collector",1,296,"2016-06-06T06:10:12-07:00","3",2,"Stimuli/versionBstim.txt","Procedure/versionBproc.txt","Tetris",NA,"MACHINE","","MACHINE","OFF","LI_Unrel_G",244,"seqrec","No","User","RGN Test","ON","Yes",1550,NA,NA,NA,NA,NA,NA,NA,NA
"A2C39KTRMOM1XZ","Collector",1,297,"2016-06-06T06:10:15-07:00","3",2,"Stimuli/versionBstim.txt","Procedure/versionBproc.txt","Tetris",NA,"SQUIRREL","","SQUIRREL","OFF","NPLI_Cat_G",167,"seqrec","No","User","RGN Test","ON","No",1500,NA,NA,NA,NA,NA,NA,NA,NA
"A2C39KTRMOM1XZ","Collector",1,298,"2016-06-06T06:10:18-07:00","3",2,"Stimuli/versionBstim.txt","Procedure/versionBproc.txt","Tetris",NA,"WATER","","WATER","OFF","CI_AdHoc_G",273,"seqrec","No","User","RGN Test","ON","No",1450,NA,NA,NA,NA,NA,NA,NA,NA
"A2C39KTRMOM1XZ","Collector",1,299,"2016-06-06T06:10:20-07:00","2",2,"Stimuli/versionBstim.txt","Procedure/versionBproc.txt","Tetris",NA,"GREEN BEANS","","GREEN BEANS","OFF","CI_Cat_G",278,"seqrec","No","User","RGN Test","ON","No",1340,NA,NA,NA,NA,NA,NA,NA,NA
"A2C39KTRMOM1XZ","Collector",1,300,"2016-06-06T06:10:22-07:00","2",2,"Stimuli/versionBstim.txt","Procedure/versionBproc.txt","Tetris",NA,"BLUEBERRY","","BLUEBERRY","OFF","NPLI_Cat_G",148,"seqrec","No","User","RGN Test","ON","No",820,NA,NA,NA,NA,NA,NA,NA,NA
"A2C39KTRMOM1XZ","Collector",1,301,"2016-06-06T06:10:24-07:00","2",2,"Stimuli/versionBstim.txt","Procedure/versionBproc.txt","Tetris",NA,"LAKE","","LAKE","OFF","LI_AdHoc_G",217,"seqrec","No","User","RGN Test","ON","Yes",1380,NA,NA,NA,NA,NA,NA,NA,NA
"A2C39KTRMOM1XZ","Collector",1,302,"2016-06-06T06:10:26-07:00","2",2,"Stimuli/versionBstim.txt","Procedure/versionBproc.txt","Tetris",NA,"BADGE","","BADGE","OFF","NPLI_Unrel_G",132,"seqrec","No","User","RGN Test","ON","No",1300,NA,NA,NA,NA,NA,NA,NA,NA
"A2C39KTRMOM1XZ","Collector",1,303,"2016-06-06T06:10:28-07:00","2",2,"Stimuli/versionBstim.txt","Procedure/versionBproc.txt","Tetris",NA,"LENS","","LENS","OFF","CI_Unrel_G",291,"seqrec","No","User","RGN Test","ON","No",810,NA,NA,NA,NA,NA,NA,NA,NA
"A2C39KTRMOM1XZ","Collector",1,304,"2016-06-06T06:10:31-07:00","3",2,"Stimuli/versionBstim.txt","Procedure/versionBproc.txt","Tetris",NA,"BABIES","","BABIES","OFF","NPLI_AdHoc_G",159,"seqrec","No","User","RGN Test","ON","No",850,NA,NA,NA,NA,NA,NA,NA,NA
"A2C39KTRMOM1XZ","Collector",1,305,"2016-06-06T06:10:33-07:00","2",2,"Stimuli/versionBstim.txt","Procedure/versionBproc.txt","Tetris",NA,"COFFEE","","COFFEE","OFF","CI_AdHoc_G",272,"seqrec","No","User","RGN Test","ON","No",1130,NA,NA,NA,NA,NA,NA,NA,NA
"A2C39KTRMOM1XZ","Collector",1,306,"2016-06-06T06:10:37-07:00","4",2,"Stimuli/versionBstim.txt","Procedure/versionBproc.txt","Tetris",NA,"CABBAGE","","CABBAGE","OFF","LI_Cat_G",224,"seqrec","No","User","RGN Test","ON","No",2290,NA,NA,NA,NA,NA,NA,NA,NA
"A2C39KTRMOM1XZ","Collector",1,307,"2016-06-06T06:10:39-07:00","2",2,"Stimuli/versionBstim.txt","Procedure/versionBproc.txt","Tetris",NA,"STEREO","","STEREO","OFF","NPLI_AdHoc_G",160,"seqrec","No","User","RGN Test","ON","No",950,NA,NA,NA,NA,NA,NA,NA,NA
"A2C39KTRMOM1XZ","Collector",1,308,"2016-06-06T06:10:41-07:00","2",2,"Stimuli/versionBstim.txt","Procedure/versionBproc.txt","Tetris",NA,"LATHE","","LATHE","OFF","LI_Cat_G",266,"seqrec","No","User","RGN Test","ON","Yes",1500,NA,NA,NA,NA,NA,NA,NA,NA
"A2C39KTRMOM1XZ","Collector",1,309,"2016-06-06T06:10:43-07:00","2",2,"Stimuli/versionBstim.txt","Procedure/versionBproc.txt","Tetris",NA,"CLOCK","","CLOCK","OFF","NPLI_Unrel_G",172,"seqrec","No","User","RGN Test","ON","No",1330,NA,NA,NA,NA,NA,NA,NA,NA
"A2C39KTRMOM1XZ","Collector",1,310,"2016-06-06T06:10:45-07:00","2",2,"Stimuli/versionBstim.txt","Procedure/versionBproc.txt","Tetris",NA,"CRYPT","","CRYPT","OFF","NPLI_Unrel_G",135,"seqrec","No","User","RGN Test","ON","No",810,NA,NA,NA,NA,NA,NA,NA,NA
"A2C39KTRMOM1XZ","Collector",1,311,"2016-06-06T06:10:47-07:00","2",2,"Stimuli/versionBstim.txt","Procedure/versionBproc.txt","Tetris",NA,"SAND","","SAND","OFF","NPLI_Unrel_G",138,"seqrec","No","User","RGN Test","ON","No",960,NA,NA,NA,NA,NA,NA,NA,NA
"A2C39KTRMOM1XZ","Collector",1,312,"2016-06-06T06:10:50-07:00","3",2,"Stimuli/versionBstim.txt","Procedure/versionBproc.txt","Tetris",NA,"TIGER","","TIGER","OFF","NPCI_Cat_G",204,"seqrec","No","User","RGN Test","ON","Yes",2170,NA,NA,NA,NA,NA,NA,NA,NA
"A2C39KTRMOM1XZ","Collector",1,313,"2016-06-06T06:10:52-07:00","2",2,"Stimuli/versionBstim.txt","Procedure/versionBproc.txt","Tetris",NA,"JACKHAMMER","","JACKHAMMER","OFF","NPCI_AdHoc_G",197,"seqrec","No","User","RGN Test","ON","No",1240,NA,NA,NA,NA,NA,NA,NA,NA
"A2C39KTRMOM1XZ","Collector",1,314,"2016-06-06T06:10:54-07:00","2",2,"Stimuli/versionBstim.txt","Procedure/versionBproc.txt","Tetris",NA,"BAT","","BAT","OFF","CI_AdHoc_G",294,"seqrec","No","User","RGN Test","ON","No",800,NA,NA,NA,NA,NA,NA,NA,NA
"A2C39KTRMOM1XZ","Collector",1,315,"2016-06-06T06:10:56-07:00","2",2,"Stimuli/versionBstim.txt","Procedure/versionBproc.txt","Tetris",NA,"DECK","","DECK","OFF","NPLI_Unrel_G",180,"seqrec","No","User","RGN Test","ON","No",1160,NA,NA,NA,NA,NA,NA,NA,NA
"A2C39KTRMOM1XZ","Collector",1,316,"2016-06-06T06:11:00-07:00","4",2,"Stimuli/versionBstim.txt","Procedure/versionBproc.txt","Tetris",NA,"AVOCADO","","AVOCADO","OFF","NPCI_AdHoc_G",184,"seqrec","No","User","RGN Test","ON","Yes",2040,NA,NA,NA,NA,NA,NA,NA,NA
"A2C39KTRMOM1XZ","Collector",1,317,"2016-06-06T06:11:04-07:00","4",2,"Stimuli/versionBstim.txt","Procedure/versionBproc.txt","Tetris",NA,"PEAR","","PEAR","OFF","NPLI_Cat_G",142,"seqrec","No","User","RGN Test","ON","No",1980,NA,NA,NA,NA,NA,NA,NA,NA
"A2C39KTRMOM1XZ","Collector",1,318,"2016-06-06T06:11:07-07:00","3",2,"Stimuli/versionBstim.txt","Procedure/versionBproc.txt","Tetris",NA,"PEPPERS","","PEPPERS","OFF","LI_Cat_G",229,"seqrec","No","User","RGN Test","ON","Yes",1520,NA,NA,NA,NA,NA,NA,NA,NA
"A2C39KTRMOM1XZ","Collector",1,319,"2016-06-06T06:11:11-07:00","4",2,"Stimuli/versionBstim.txt","Procedure/versionBproc.txt","Tetris",NA,"ISLAND","","ISLAND","OFF","CI_Unrel_G",284,"seqrec","No","User","RGN Test","ON","No",1570,NA,NA,NA,NA,NA,NA,NA,NA
"A2C39KTRMOM1XZ","Collector",1,320,"2016-06-06T06:11:14-07:00","3",2,"Stimuli/versionBstim.txt","Procedure/versionBproc.txt","Tetris",NA,"LAVA","","LAVA","OFF","LI_AdHoc_G",218,"seqrec","No","User","RGN Test","ON","Yes",1870,NA,NA,NA,NA,NA,NA,NA,NA
"A2C39KTRMOM1XZ","Collector",1,321,"2016-06-06T06:11:18-07:00","4",2,"Stimuli/versionBstim.txt","Procedure/versionBproc.txt","Tetris",NA,"n/a","n/a","n/a","n/a","n/a",0,"Instruct","N/A","User","Click the button below to continue.","OFF","",1390,NA,NA,NA,NA,NA,NA,NA,NA
"A2C39KTRMOM1XZ","Collector",1,322,"2016-06-06T06:11:35-07:00","17",2,"Stimuli/versionBstim.txt","Procedure/versionBproc.txt","Tetris",NA,"n/a","n/a","n/a","n/a","n/a",0,"Instruct","N/A","User","You again will be presented with 6 lists of words, each containing 20 words, but now you will complete a recall memory test following each list. After each list is presented, you will type in the words you saw on that list into a dialog box. You will have 1 minute to recall each list. The computer will prompt you when your time is up. Click the button below to begin the first list.","OFF","",15740,NA,NA,NA,NA,NA,NA,NA,NA
"A2C39KTRMOM1XZ","Collector",1,323,"2016-06-06T06:11:39-07:00","4",2,"Stimuli/versionBstim.txt","Procedure/versionBproc.txt","Tetris",NA,"FLURRY","","FLURRY","OFF","Unrel_Recall_L1",307,"Study","No","3","Unrel_Recall_L1","ON","",3000,NA,NA,NA,NA,NA,NA,NA,NA
"A2C39KTRMOM1XZ","Collector",1,324,"2016-06-06T06:11:43-07:00","4",2,"Stimuli/versionBstim.txt","Procedure/versionBproc.txt","Tetris",NA,"WINNER","","WINNER","OFF","Unrel_Recall_L1",321,"Study","No","3","Unrel_Recall_L1","ON","",3000,NA,NA,NA,NA,NA,NA,NA,NA
"A2C39KTRMOM1XZ","Collector",1,325,"2016-06-06T06:11:47-07:00","4",2,"Stimuli/versionBstim.txt","Procedure/versionBproc.txt","Tetris",NA,"MARSH","","MARSH","OFF","Unrel_Recall_L1",304,"Study","No","3","Unrel_Recall_L1","ON","",3000,NA,NA,NA,NA,NA,NA,NA,NA
"A2C39KTRMOM1XZ","Collector",1,326,"2016-06-06T06:11:51-07:00","4",2,"Stimuli/versionBstim.txt","Procedure/versionBproc.txt","Tetris",NA,"LANCE","","LANCE","OFF","Unrel_Recall_L1",316,"Study","No","3","Unrel_Recall_L1","ON","",3000,NA,NA,NA,NA,NA,NA,NA,NA
"A2C39KTRMOM1XZ","Collector",1,327,"2016-06-06T06:11:54-07:00","3",2,"Stimuli/versionBstim.txt","Procedure/versionBproc.txt","Tetris",NA,"CEREAL","","CEREAL","OFF","Unrel_Recall_L1",315,"Study","No","3","Unrel_Recall_L1","ON","",3000,NA,NA,NA,NA,NA,NA,NA,NA
"A2C39KTRMOM1XZ","Collector",1,328,"2016-06-06T06:11:58-07:00","4",2,"Stimuli/versionBstim.txt","Procedure/versionBproc.txt","Tetris",NA,"GIN","","GIN","OFF","Unrel_Recall_L1",318,"Study","No","3","Unrel_Recall_L1","ON","",3000,NA,NA,NA,NA,NA,NA,NA,NA
"A2C39KTRMOM1XZ","Collector",1,329,"2016-06-06T06:12:02-07:00","4",2,"Stimuli/versionBstim.txt","Procedure/versionBproc.txt","Tetris",NA,"WRAP","","WRAP","OFF","Unrel_Recall_L1",302,"Study","No","3","Unrel_Recall_L1","ON","",3000,NA,NA,NA,NA,NA,NA,NA,NA
"A2C39KTRMOM1XZ","Collector",1,330,"2016-06-06T06:12:06-07:00","4",2,"Stimuli/versionBstim.txt","Procedure/versionBproc.txt","Tetris",NA,"AVENUE","","AVENUE","OFF","Unrel_Recall_L1",305,"Study","No","3","Unrel_Recall_L1","ON","",3000,NA,NA,NA,NA,NA,NA,NA,NA
"A2C39KTRMOM1XZ","Collector",1,331,"2016-06-06T06:12:11-07:00","5",2,"Stimuli/versionBstim.txt","Procedure/versionBproc.txt","Tetris",NA,"JAR","","JAR","OFF","Unrel_Recall_L1",311,"Study","No","3","Unrel_Recall_L1","ON","",3000,NA,NA,NA,NA,NA,NA,NA,NA
"A2C39KTRMOM1XZ","Collector",1,332,"2016-06-06T06:12:17-07:00","6",2,"Stimuli/versionBstim.txt","Procedure/versionBproc.txt","Tetris",NA,"WINCH","","WINCH","OFF","Unrel_Recall_L1",309,"Study","No","3","Unrel_Recall_L1","ON","",3000,NA,NA,NA,NA,NA,NA,NA,NA
"A2C39KTRMOM1XZ","Collector",1,333,"2016-06-06T06:12:21-07:00","4",2,"Stimuli/versionBstim.txt","Procedure/versionBproc.txt","Tetris",NA,"DWARF","","DWARF","OFF","Unrel_Recall_L1",317,"Study","No","3","Unrel_Recall_L1","ON","",3000,NA,NA,NA,NA,NA,NA,NA,NA
"A2C39KTRMOM1XZ","Collector",1,334,"2016-06-06T06:12:25-07:00","4",2,"Stimuli/versionBstim.txt","Procedure/versionBproc.txt","Tetris",NA,"WORKSHOP","","WORKSHOP","OFF","Unrel_Recall_L1",320,"Study","No","3","Unrel_Recall_L1","ON","",3000,NA,NA,NA,NA,NA,NA,NA,NA
"A2C39KTRMOM1XZ","Collector",1,335,"2016-06-06T06:12:29-07:00","4",2,"Stimuli/versionBstim.txt","Procedure/versionBproc.txt","Tetris",NA,"JOKE","","JOKE","OFF","Unrel_Recall_L1",306,"Study","No","3","Unrel_Recall_L1","ON","",3000,NA,NA,NA,NA,NA,NA,NA,NA
"A2C39KTRMOM1XZ","Collector",1,336,"2016-06-06T06:12:34-07:00","5",2,"Stimuli/versionBstim.txt","Procedure/versionBproc.txt","Tetris",NA,"KISS","","KISS","OFF","Unrel_Recall_L1",312,"Study","No","3","Unrel_Recall_L1","ON","",3000,NA,NA,NA,NA,NA,NA,NA,NA
"A2C39KTRMOM1XZ","Collector",1,337,"2016-06-06T06:12:41-07:00","7",2,"Stimuli/versionBstim.txt","Procedure/versionBproc.txt","Tetris",NA,"FOSSIL","","FOSSIL","OFF","Unrel_Recall_L1",314,"Study","No","3","Unrel_Recall_L1","ON","",3000,NA,NA,NA,NA,NA,NA,NA,NA
"A2C39KTRMOM1XZ","Collector",1,338,"2016-06-06T06:12:46-07:00","5",2,"Stimuli/versionBstim.txt","Procedure/versionBproc.txt","Tetris",NA,"DETOUR","","DETOUR","OFF","Unrel_Recall_L1",303,"Study","No","3","Unrel_Recall_L1","ON","",3000,NA,NA,NA,NA,NA,NA,NA,NA
"A2C39KTRMOM1XZ","Collector",1,339,"2016-06-06T06:12:50-07:00","4",2,"Stimuli/versionBstim.txt","Procedure/versionBproc.txt","Tetris",NA,"BLAZE","","BLAZE","OFF","Unrel_Recall_L1",319,"Study","No","3","Unrel_Recall_L1","ON","",3000,NA,NA,NA,NA,NA,NA,NA,NA
"A2C39KTRMOM1XZ","Collector",1,340,"2016-06-06T06:12:54-07:00","4",2,"Stimuli/versionBstim.txt","Procedure/versionBproc.txt","Tetris",NA,"CANYON","","CANYON","OFF","Unrel_Recall_L1",313,"Study","No","3","Unrel_Recall_L1","ON","",3000,NA,NA,NA,NA,NA,NA,NA,NA
"A2C39KTRMOM1XZ","Collector",1,341,"2016-06-06T06:12:58-07:00","4",2,"Stimuli/versionBstim.txt","Procedure/versionBproc.txt","Tetris",NA,"CELLOPHANE","","CELLOPHANE","OFF","Unrel_Recall_L1",308,"Study","No","3","Unrel_Recall_L1","ON","",3000,NA,NA,NA,NA,NA,NA,NA,NA
"A2C39KTRMOM1XZ","Collector",1,342,"2016-06-06T06:13:03-07:00","5",2,"Stimuli/versionBstim.txt","Procedure/versionBproc.txt","Tetris",NA,"GONG","","GONG","OFF","Unrel_Recall_L1",310,"Study","No","3","Unrel_Recall_L1","ON","",3000,NA,NA,NA,NA,NA,NA,NA,NA
"A2C39KTRMOM1XZ","Collector",1,343,"2016-06-06T06:13:08-07:00","5",2,"Stimuli/versionBstim.txt","Procedure/versionBproc.txt","Tetris",NA,"n/a","n/a","n/a","n/a","n/a",0,"Instruct","N/A","User","Recall Instructions: Recall the words that you saw from memory by typing them into the dialog box on the next screen. You will have 1 minute. Click the button below to begin.","OFF","",3100,NA,NA,NA,NA,NA,NA,NA,NA
"A2C39KTRMOM1XZ","Collector",1,344,"2016-06-06T06:14:10-07:00","62",2,"Stimuli/versionBstim.txt","Procedure/versionBproc.txt","Tetris",NA,"n/a","n/a","n/a","n/a","n/a",0,"freerecall","N/A","60","Recall now in the box. Spelling will not be counted against you. The computer will advance when your minute is up.","OFF","Gong, Flurry, marsh, lance, jar, cellophane, winner, jar, dwarf, blaze,detour,",60000,1960,59290,NA,NA,NA,NA,NA,NA
"A2C39KTRMOM1XZ","Collector",1,345,"2016-06-06T06:14:17-07:00","7",2,"Stimuli/versionBstim.txt","Procedure/versionBproc.txt","Tetris",NA,"n/a","n/a","n/a","n/a","n/a",0,"Instruct","N/A","User","Click the button below for the next list.","OFF","",6030,NA,NA,NA,NA,NA,NA,NA,NA
"A2C39KTRMOM1XZ","Collector",1,346,"2016-06-06T06:14:22-07:00","5",2,"Stimuli/versionBstim.txt","Procedure/versionBproc.txt","Tetris",NA,"TILE","","TILE","OFF","AdHoc_Recall_L2",325,"Study","No","3","AdHoc_Recall_L2","ON","",3000,NA,NA,NA,NA,NA,NA,NA,NA
"A2C39KTRMOM1XZ","Collector",1,347,"2016-06-06T06:14:27-07:00","5",2,"Stimuli/versionBstim.txt","Procedure/versionBproc.txt","Tetris",NA,"DEODORANT","","DEODORANT","OFF","AdHoc_Recall_L2",331,"Study","No","3","AdHoc_Recall_L2","ON","",3000,NA,NA,NA,NA,NA,NA,NA,NA
"A2C39KTRMOM1XZ","Collector",1,348,"2016-06-06T06:14:32-07:00","5",2,"Stimuli/versionBstim.txt","Procedure/versionBproc.txt","Tetris",NA,"PLUNGER","","PLUNGER","OFF","AdHoc_Recall_L2",335,"Study","No","3","AdHoc_Recall_L2","ON","",3000,NA,NA,NA,NA,NA,NA,NA,NA
"A2C39KTRMOM1XZ","Collector",1,349,"2016-06-06T06:14:37-07:00","5",2,"Stimuli/versionBstim.txt","Procedure/versionBproc.txt","Tetris",NA,"COMB","","COMB","OFF","AdHoc_Recall_L2",328,"Study","No","3","AdHoc_Recall_L2","ON","",3000,NA,NA,NA,NA,NA,NA,NA,NA
"A2C39KTRMOM1XZ","Collector",1,350,"2016-06-06T06:14:42-07:00","5",2,"Stimuli/versionBstim.txt","Procedure/versionBproc.txt","Tetris",NA,"LOOFAH","","LOOFAH","OFF","AdHoc_Recall_L2",340,"Study","No","3","AdHoc_Recall_L2","ON","",3000,NA,NA,NA,NA,NA,NA,NA,NA
"A2C39KTRMOM1XZ","Collector",1,351,"2016-06-06T06:14:47-07:00","5",2,"Stimuli/versionBstim.txt","Procedure/versionBproc.txt","Tetris",NA,"CANDLE","","CANDLE","OFF","AdHoc_Recall_L2",341,"Study","No","3","AdHoc_Recall_L2","ON","",3000,NA,NA,NA,NA,NA,NA,NA,NA
"A2C39KTRMOM1XZ","Collector",1,352,"2016-06-06T06:14:52-07:00","5",2,"Stimuli/versionBstim.txt","Procedure/versionBproc.txt","Tetris",NA,"MOUTHWASH","","MOUTHWASH","OFF","AdHoc_Recall_L2",336,"Study","No","3","AdHoc_Recall_L2","ON","",3000,NA,NA,NA,NA,NA,NA,NA,NA
"A2C39KTRMOM1XZ","Collector",1,353,"2016-06-06T06:14:57-07:00","5",2,"Stimuli/versionBstim.txt","Procedure/versionBproc.txt","Tetris",NA,"SCALE","","SCALE","OFF","AdHoc_Recall_L2",323,"Study","No","3","AdHoc_Recall_L2","ON","",3000,NA,NA,NA,NA,NA,NA,NA,NA
"A2C39KTRMOM1XZ","Collector",1,354,"2016-06-06T06:15:01-07:00","4",2,"Stimuli/versionBstim.txt","Procedure/versionBproc.txt","Tetris",NA,"MAT","","MAT","OFF","AdHoc_Recall_L2",324,"Study","No","3","AdHoc_Recall_L2","ON","",3000,NA,NA,NA,NA,NA,NA,NA,NA
"A2C39KTRMOM1XZ","Collector",1,355,"2016-06-06T06:15:06-07:00","5",2,"Stimuli/versionBstim.txt","Procedure/versionBproc.txt","Tetris",NA,"BRUSH","","BRUSH","OFF","AdHoc_Recall_L2",329,"Study","No","3","AdHoc_Recall_L2","ON","",3000,NA,NA,NA,NA,NA,NA,NA,NA
"A2C39KTRMOM1XZ","Collector",1,356,"2016-06-06T06:15:11-07:00","5",2,"Stimuli/versionBstim.txt","Procedure/versionBproc.txt","Tetris",NA,"SHAMPOO","","SHAMPOO","OFF","AdHoc_Recall_L2",334,"Study","No","3","AdHoc_Recall_L2","ON","",3000,NA,NA,NA,NA,NA,NA,NA,NA
"A2C39KTRMOM1XZ","Collector",1,357,"2016-06-06T06:15:16-07:00","5",2,"Stimuli/versionBstim.txt","Procedure/versionBproc.txt","Tetris",NA,"HAIR DRYER","","HAIR DRYER","OFF","AdHoc_Recall_L2",339,"Study","No","3","AdHoc_Recall_L2","ON","",3000,NA,NA,NA,NA,NA,NA,NA,NA
"A2C39KTRMOM1XZ","Collector",1,358,"2016-06-06T06:15:21-07:00","5",2,"Stimuli/versionBstim.txt","Procedure/versionBproc.txt","Tetris",NA,"LOTION","","LOTION","OFF","AdHoc_Recall_L2",330,"Study","No","3","AdHoc_Recall_L2","ON","",3000,NA,NA,NA,NA,NA,NA,NA,NA
"A2C39KTRMOM1XZ","Collector",1,359,"2016-06-06T06:15:26-07:00","5",2,"Stimuli/versionBstim.txt","Procedure/versionBproc.txt","Tetris",NA,"CURLING IRON","","CURLING IRON","OFF","AdHoc_Recall_L2",332,"Study","No","3","AdHoc_Recall_L2","ON","",3000,NA,NA,NA,NA,NA,NA,NA,NA
"A2C39KTRMOM1XZ","Collector",1,360,"2016-06-06T06:15:32-07:00","6",2,"Stimuli/versionBstim.txt","Procedure/versionBproc.txt","Tetris",NA,"TWEEZERS","","TWEEZERS","OFF","AdHoc_Recall_L2",338,"Study","No","3","AdHoc_Recall_L2","ON","",3000,NA,NA,NA,NA,NA,NA,NA,NA
"A2C39KTRMOM1XZ","Collector",1,361,"2016-06-06T06:15:37-07:00","5",2,"Stimuli/versionBstim.txt","Procedure/versionBproc.txt","Tetris",NA,"SHAVER","","SHAVER","OFF","AdHoc_Recall_L2",333,"Study","No","3","AdHoc_Recall_L2","ON","",3000,NA,NA,NA,NA,NA,NA,NA,NA
"A2C39KTRMOM1XZ","Collector",1,362,"2016-06-06T06:15:42-07:00","5",2,"Stimuli/versionBstim.txt","Procedure/versionBproc.txt","Tetris",NA,"SOAP","","SOAP","OFF","AdHoc_Recall_L2",322,"Study","No","3","AdHoc_Recall_L2","ON","",3000,NA,NA,NA,NA,NA,NA,NA,NA
"A2C39KTRMOM1XZ","Collector",1,363,"2016-06-06T06:15:47-07:00","5",2,"Stimuli/versionBstim.txt","Procedure/versionBproc.txt","Tetris",NA,"VANITY","","VANITY","OFF","AdHoc_Recall_L2",337,"Study","No","3","AdHoc_Recall_L2","ON","",3000,NA,NA,NA,NA,NA,NA,NA,NA
"A2C39KTRMOM1XZ","Collector",1,364,"2016-06-06T06:15:52-07:00","5",2,"Stimuli/versionBstim.txt","Procedure/versionBproc.txt","Tetris",NA,"FAUCET","","FAUCET","OFF","AdHoc_Recall_L2",326,"Study","No","3","AdHoc_Recall_L2","ON","",3000,NA,NA,NA,NA,NA,NA,NA,NA
"A2C39KTRMOM1XZ","Collector",1,365,"2016-06-06T06:15:56-07:00","4",2,"Stimuli/versionBstim.txt","Procedure/versionBproc.txt","Tetris",NA,"MEDICINE","","MEDICINE","OFF","AdHoc_Recall_L2",327,"Study","No","3","AdHoc_Recall_L2","ON","",3000,NA,NA,NA,NA,NA,NA,NA,NA
"A2C39KTRMOM1XZ","Collector",1,366,"2016-06-06T06:16:37-07:00","41",2,"Stimuli/versionBstim.txt","Procedure/versionBproc.txt","Tetris",NA,"n/a","n/a","n/a","n/a","n/a",0,"Instruct","N/A","User","Recall Instructions: Recall the words that you saw from memory by typing them into the dialog box on the next screen. You will have 1 minute. Click the button below to begin.","OFF","",6990,NA,NA,NA,NA,NA,NA,NA,NA
"A2C39KTRMOM1XZ","Collector",1,367,"2016-06-06T06:17:38-07:00","61",2,"Stimuli/versionBstim.txt","Procedure/versionBproc.txt","Tetris",NA,"n/a","n/a","n/a","n/a","n/a",0,"freerecall","N/A","60","Recall now in the box. Spelling will not be counted against you. The computer will advance when your minute is up.","OFF","vanity, loofah, shampoo, tile, deodrant, soap, lotion, blow dryer, ",60000,2420,58150,NA,NA,NA,NA,NA,NA
"A2C39KTRMOM1XZ","Collector",1,368,"2016-06-06T06:17:44-07:00","6",2,"Stimuli/versionBstim.txt","Procedure/versionBproc.txt","Tetris",NA,"n/a","n/a","n/a","n/a","n/a",0,"Instruct","N/A","User","Click the button below for the next list.","OFF","",4260,NA,NA,NA,NA,NA,NA,NA,NA
"A2C39KTRMOM1XZ","Collector",1,369,"2016-06-06T06:17:48-07:00","4",2,"Stimuli/versionBstim.txt","Procedure/versionBproc.txt","Tetris",NA,"WEIGHTS","","WEIGHTS","OFF","AdHoc_Recall_L3",346,"Study","No","3","AdHoc_Recall_L3","ON","",3000,NA,NA,NA,NA,NA,NA,NA,NA
"A2C39KTRMOM1XZ","Collector",1,370,"2016-06-06T06:17:53-07:00","5",2,"Stimuli/versionBstim.txt","Procedure/versionBproc.txt","Tetris",NA,"SHACKLE","","SHACKLE","OFF","AdHoc_Recall_L3",354,"Study","No","3","AdHoc_Recall_L3","ON","",3000,NA,NA,NA,NA,NA,NA,NA,NA
"A2C39KTRMOM1XZ","Collector",1,371,"2016-06-06T06:17:57-07:00","4",2,"Stimuli/versionBstim.txt","Procedure/versionBproc.txt","Tetris",NA,"TOWER","","TOWER","OFF","AdHoc_Recall_L3",351,"Study","No","3","AdHoc_Recall_L3","ON","",3000,NA,NA,NA,NA,NA,NA,NA,NA
"A2C39KTRMOM1XZ","Collector",1,372,"2016-06-06T06:18:01-07:00","4",2,"Stimuli/versionBstim.txt","Procedure/versionBproc.txt","Tetris",NA,"CHAINLINK","","CHAINLINK","OFF","AdHoc_Recall_L3",350,"Study","No","3","AdHoc_Recall_L3","ON","",3000,NA,NA,NA,NA,NA,NA,NA,NA
"A2C39KTRMOM1XZ","Collector",1,373,"2016-06-06T06:18:05-07:00","4",2,"Stimuli/versionBstim.txt","Procedure/versionBproc.txt","Tetris",NA,"CIGARETTE","","CIGARETTE","OFF","AdHoc_Recall_L3",360,"Study","No","3","AdHoc_Recall_L3","ON","",3000,NA,NA,NA,NA,NA,NA,NA,NA
"A2C39KTRMOM1XZ","Collector",1,374,"2016-06-06T06:18:09-07:00","4",2,"Stimuli/versionBstim.txt","Procedure/versionBproc.txt","Tetris",NA,"DETECTIVE","","DETECTIVE","OFF","AdHoc_Recall_L3",361,"Study","No","3","AdHoc_Recall_L3","ON","",3000,NA,NA,NA,NA,NA,NA,NA,NA
"A2C39KTRMOM1XZ","Collector",1,375,"2016-06-06T06:18:14-07:00","5",2,"Stimuli/versionBstim.txt","Procedure/versionBproc.txt","Tetris",NA,"GUARD","","GUARD","OFF","AdHoc_Recall_L3",349,"Study","No","3","AdHoc_Recall_L3","ON","",3000,NA,NA,NA,NA,NA,NA,NA,NA
"A2C39KTRMOM1XZ","Collector",1,376,"2016-06-06T06:18:18-07:00","4",2,"Stimuli/versionBstim.txt","Procedure/versionBproc.txt","Tetris",NA,"CELL","","CELL","OFF","AdHoc_Recall_L3",343,"Study","No","3","AdHoc_Recall_L3","ON","",3000,NA,NA,NA,NA,NA,NA,NA,NA
"A2C39KTRMOM1XZ","Collector",1,377,"2016-06-06T06:18:23-07:00","5",2,"Stimuli/versionBstim.txt","Procedure/versionBproc.txt","Tetris",NA,"INMATE","","INMATE","OFF","AdHoc_Recall_L3",356,"Study","No","3","AdHoc_Recall_L3","ON","",3000,NA,NA,NA,NA,NA,NA,NA,NA
"A2C39KTRMOM1XZ","Collector",1,378,"2016-06-06T06:18:27-07:00","4",2,"Stimuli/versionBstim.txt","Procedure/versionBproc.txt","Tetris",NA,"PISTOL","","PISTOL","OFF","AdHoc_Recall_L3",342,"Study","No","3","AdHoc_Recall_L3","ON","",3000,NA,NA,NA,NA,NA,NA,NA,NA
"A2C39KTRMOM1XZ","Collector",1,379,"2016-06-06T06:18:32-07:00","5",2,"Stimuli/versionBstim.txt","Procedure/versionBproc.txt","Tetris",NA,"ALARM","","ALARM","OFF","AdHoc_Recall_L3",352,"Study","No","3","AdHoc_Recall_L3","ON","",3000,NA,NA,NA,NA,NA,NA,NA,NA
"A2C39KTRMOM1XZ","Collector",1,380,"2016-06-06T06:18:36-07:00","4",2,"Stimuli/versionBstim.txt","Procedure/versionBproc.txt","Tetris",NA,"NEEDLE","","NEEDLE","OFF","AdHoc_Recall_L3",359,"Study","No","3","AdHoc_Recall_L3","ON","",3000,NA,NA,NA,NA,NA,NA,NA,NA
"A2C39KTRMOM1XZ","Collector",1,381,"2016-06-06T06:18:41-07:00","5",2,"Stimuli/versionBstim.txt","Procedure/versionBproc.txt","Tetris",NA,"OFFICER","","OFFICER","OFF","AdHoc_Recall_L3",357,"Study","No","3","AdHoc_Recall_L3","ON","",3000,NA,NA,NA,NA,NA,NA,NA,NA
"A2C39KTRMOM1XZ","Collector",1,382,"2016-06-06T06:18:46-07:00","5",2,"Stimuli/versionBstim.txt","Procedure/versionBproc.txt","Tetris",NA,"TATTOO","","TATTOO","OFF","AdHoc_Recall_L3",358,"Study","No","3","AdHoc_Recall_L3","ON","",3000,NA,NA,NA,NA,NA,NA,NA,NA
"A2C39KTRMOM1XZ","Collector",1,383,"2016-06-06T06:18:50-07:00","4",2,"Stimuli/versionBstim.txt","Procedure/versionBproc.txt","Tetris",NA,"FINGERPRINTS","","FINGERPRINTS","OFF","AdHoc_Recall_L3",345,"Study","No","3","AdHoc_Recall_L3","ON","",3000,NA,NA,NA,NA,NA,NA,NA,NA
