*Username	*ExperimentName	*Session	*Trial	*Date	*TimeDif	*Condition Number	*Stimuli File	*Order File	*Condition Description	*Condition Notes	Stimuli*Target	Stimuli*Cue	Stimuli*Answer	Stimuli*Shuffle	Stimuli*Stimuli Notes	Procedure*Item	Procedure*Trial Type	Procedure*Post Trial	Procedure*Timing	Procedure*Procedure Notes	Procedure*Shuffle	Response*Response1	Response*RT	Response*RTkey	Response*RTlast	Response*strictAcc	Response*lenientAcc	Response*Accuracy	Response*JOL	Response*postRT	Response*postRTkey
A1E610OYLMKW82	Collector	1	1	2016-05-26T11:37:56-07:00	-	2	Stimuli/versionFstim.txt	Procedure/versionFproc.txt	Tetris		n/a	n/a	n/a	n/a	n/a	0	Instruct	N/A	User	Click the button below for the first list.	Off		820								
A1E610OYLMKW82	Collector	1	2	2016-05-26T11:38:03-07:00	7	2	Stimuli/versionFstim.txt	Procedure/versionFproc.txt	Tetris		PELVIS		PELVIS	OFF	Cat_Restudy_L1	13	Study	No	3	Cat_Restudy_L1	ON		3000								
A1E610OYLMKW82	Collector	1	3	2016-05-26T11:38:10-07:00	7	2	Stimuli/versionFstim.txt	Procedure/versionFproc.txt	Tetris		STOMACH		STOMACH	OFF	Cat_Restudy_L1	8	Study	No	3	Cat_Restudy_L1	ON		3000								
A1E610OYLMKW82	Collector	1	4	2016-05-26T11:38:16-07:00	6	2	Stimuli/versionFstim.txt	Procedure/versionFproc.txt	Tetris		HEART		HEART	OFF	Cat_Restudy_L1	11	Study	No	3	Cat_Restudy_L1	ON		3000								
A1E610OYLMKW82	Collector	1	5	2016-05-26T11:38:21-07:00	5	2	Stimuli/versionFstim.txt	Procedure/versionFproc.txt	Tetris		SHOULDERS		SHOULDERS	OFF	Cat_Restudy_L1	19	Study	No	3	Cat_Restudy_L1	ON		3000								
A1E610OYLMKW82	Collector	1	6	2016-05-26T11:38:26-07:00	5	2	Stimuli/versionFstim.txt	Procedure/versionFproc.txt	Tetris		ELBOW		ELBOW	OFF	Cat_Restudy_L1	18	Study	No	3	Cat_Restudy_L1	ON		3000								
A1E610OYLMKW82	Collector	1	7	2016-05-26T11:38:31-07:00	5	2	Stimuli/versionFstim.txt	Procedure/versionFproc.txt	Tetris		MOUTH		MOUTH	OFF	Cat_Restudy_L1	7	Study	No	3	Cat_Restudy_L1	ON		3000								
A1E610OYLMKW82	Collector	1	8	2016-05-26T11:38:36-07:00	5	2	Stimuli/versionFstim.txt	Procedure/versionFproc.txt	Tetris		FINGER		FINGER	OFF	Cat_Restudy_L1	5	Study	No	3	Cat_Restudy_L1	ON		3000								
A1E610OYLMKW82	Collector	1	9	2016-05-26T11:38:42-07:00	6	2	Stimuli/versionFstim.txt	Procedure/versionFproc.txt	Tetris		LEGS		LEGS	OFF	Cat_Restudy_L1	2	Study	No	3	Cat_Restudy_L1	ON		3000								
A1E610OYLMKW82	Collector	1	10	2016-05-26T11:38:47-07:00	5	2	Stimuli/versionFstim.txt	Procedure/versionFproc.txt	Tetris		KNEE		KNEE	OFF	Cat_Restudy_L1	12	Study	No	3	Cat_Restudy_L1	ON		3000								
A1E610OYLMKW82	Collector	1	11	2016-05-26T11:38:52-07:00	5	2	Stimuli/versionFstim.txt	Procedure/versionFproc.txt	Tetris		HEAD		HEAD	OFF	Cat_Restudy_L1	3	Study	No	3	Cat_Restudy_L1	ON		3000								
A1E610OYLMKW82	Collector	1	12	2016-05-26T11:38:58-07:00	6	2	Stimuli/versionFstim.txt	Procedure/versionFproc.txt	Tetris		TOOTH		TOOTH	OFF	Cat_Restudy_L1	17	Study	No	3	Cat_Restudy_L1	ON		3000								
A1E610OYLMKW82	Collector	1	13	2016-05-26T11:39:04-07:00	6	2	Stimuli/versionFstim.txt	Procedure/versionFproc.txt	Tetris		EYEBROW		EYEBROW	OFF	Cat_Restudy_L1	9	Study	No	3	Cat_Restudy_L1	ON		3000								
A1E610OYLMKW82	Collector	1	14	2016-05-26T11:39:09-07:00	5	2	Stimuli/versionFstim.txt	Procedure/versionFproc.txt	Tetris		LIVER		LIVER	OFF	Cat_Restudy_L1	14	Study	No	3	Cat_Restudy_L1	ON		3000								
A1E610OYLMKW82	Collector	1	15	2016-05-26T11:39:14-07:00	5	2	Stimuli/versionFstim.txt	Procedure/versionFproc.txt	Tetris		BRAIN		BRAIN	OFF	Cat_Restudy_L1	15	Study	No	3	Cat_Restudy_L1	ON		3000								
A1E610OYLMKW82	Collector	1	16	2016-05-26T11:39:19-07:00	5	2	Stimuli/versionFstim.txt	Procedure/versionFproc.txt	Tetris		FOOT 		FOOT 	OFF	Cat_Restudy_L1	4	Study	No	3	Cat_Restudy_L1	ON		3000								
A1E610OYLMKW82	Collector	1	17	2016-05-26T11:39:24-07:00	5	2	Stimuli/versionFstim.txt	Procedure/versionFproc.txt	Tetris		LUNGS		LUNGS	OFF	Cat_Restudy_L1	16	Study	No	3	Cat_Restudy_L1	ON		3000								
A1E610OYLMKW82	Collector	1	18	2016-05-26T11:39:30-07:00	6	2	Stimuli/versionFstim.txt	Procedure/versionFproc.txt	Tetris		TONGUE		TONGUE	OFF	Cat_Restudy_L1	21	Study	No	3	Cat_Restudy_L1	ON		3000								
A1E610OYLMKW82	Collector	1	19	2016-05-26T11:39:34-07:00	4	2	Stimuli/versionFstim.txt	Procedure/versionFproc.txt	Tetris		NECK		NECK	OFF	Cat_Restudy_L1	10	Study	No	3	Cat_Restudy_L1	ON		3000								
A1E610OYLMKW82	Collector	1	20	2016-05-26T11:39:40-07:00	6	2	Stimuli/versionFstim.txt	Procedure/versionFproc.txt	Tetris		FACE		FACE	OFF	Cat_Restudy_L1	20	Study	No	3	Cat_Restudy_L1	ON		3000								
A1E610OYLMKW82	Collector	1	21	2016-05-26T11:39:45-07:00	5	2	Stimuli/versionFstim.txt	Procedure/versionFproc.txt	Tetris		HAND		HAND	OFF	Cat_Restudy_L1	6	Study	No	3	Cat_Restudy_L1	ON		3000								
A1E610OYLMKW82	Collector	1	22	2016-05-26T11:39:50-07:00	5	2	Stimuli/versionFstim.txt	Procedure/versionFproc.txt	Tetris		n/a	n/a	n/a	n/a	n/a	0	Instruct	N/A	User	Restudy Instructions: You will now view this list again, but in a different order. Click the button below to begin.	OFF		2520								
A1E610OYLMKW82	Collector	1	23	2016-05-26T11:39:54-07:00	4	2	Stimuli/versionFstim.txt	Procedure/versionFproc.txt	Tetris		MOUTH		MOUTH	OFF	Cat_Restudy_L1	27	Study	No	3	Cat_Restudy_L1	ON		3000								
A1E610OYLMKW82	Collector	1	24	2016-05-26T11:40:00-07:00	6	2	Stimuli/versionFstim.txt	Procedure/versionFproc.txt	Tetris		HEART		HEART	OFF	Cat_Restudy_L1	31	Study	No	3	Cat_Restudy_L1	ON		3000								
A1E610OYLMKW82	Collector	1	25	2016-05-26T11:40:04-07:00	4	2	Stimuli/versionFstim.txt	Procedure/versionFproc.txt	Tetris		ELBOW		ELBOW	OFF	Cat_Restudy_L1	38	Study	No	3	Cat_Restudy_L1	ON		3000								
A1E610OYLMKW82	Collector	1	26	2016-05-26T11:40:10-07:00	6	2	Stimuli/versionFstim.txt	Procedure/versionFproc.txt	Tetris		LIVER		LIVER	OFF	Cat_Restudy_L1	34	Study	No	3	Cat_Restudy_L1	ON		3000								
A1E610OYLMKW82	Collector	1	27	2016-05-26T11:40:15-07:00	5	2	Stimuli/versionFstim.txt	Procedure/versionFproc.txt	Tetris		LUNGS		LUNGS	OFF	Cat_Restudy_L1	36	Study	No	3	Cat_Restudy_L1	ON		3000								
A1E610OYLMKW82	Collector	1	28	2016-05-26T11:40:21-07:00	6	2	Stimuli/versionFstim.txt	Procedure/versionFproc.txt	Tetris		EYEBROW		EYEBROW	OFF	Cat_Restudy_L1	29	Study	No	3	Cat_Restudy_L1	ON		3000								
A1E610OYLMKW82	Collector	1	29	2016-05-26T11:40:25-07:00	4	2	Stimuli/versionFstim.txt	Procedure/versionFproc.txt	Tetris		PELVIS		PELVIS	OFF	Cat_Restudy_L1	33	Study	No	3	Cat_Restudy_L1	ON		3000								
A1E610OYLMKW82	Collector	1	30	2016-05-26T11:40:31-07:00	6	2	Stimuli/versionFstim.txt	Procedure/versionFproc.txt	Tetris		KNEE		KNEE	OFF	Cat_Restudy_L1	32	Study	No	3	Cat_Restudy_L1	ON		3000								
A1E610OYLMKW82	Collector	1	31	2016-05-26T11:40:35-07:00	4	2	Stimuli/versionFstim.txt	Procedure/versionFproc.txt	Tetris		HEAD		HEAD	OFF	Cat_Restudy_L1	23	Study	No	3	Cat_Restudy_L1	ON		3000								
A1E610OYLMKW82	Collector	1	32	2016-05-26T11:40:41-07:00	6	2	Stimuli/versionFstim.txt	Procedure/versionFproc.txt	Tetris		SHOULDERS		SHOULDERS	OFF	Cat_Restudy_L1	39	Study	No	3	Cat_Restudy_L1	ON		3000								
A1E610OYLMKW82	Collector	1	33	2016-05-26T11:40:46-07:00	5	2	Stimuli/versionFstim.txt	Procedure/versionFproc.txt	Tetris		STOMACH		STOMACH	OFF	Cat_Restudy_L1	28	Study	No	3	Cat_Restudy_L1	ON		3000								
A1E610OYLMKW82	Collector	1	34	2016-05-26T11:40:51-07:00	5	2	Stimuli/versionFstim.txt	Procedure/versionFproc.txt	Tetris		BRAIN		BRAIN	OFF	Cat_Restudy_L1	35	Study	No	3	Cat_Restudy_L1	ON		3000								
A1E610OYLMKW82	Collector	1	35	2016-05-26T11:40:56-07:00	5	2	Stimuli/versionFstim.txt	Procedure/versionFproc.txt	Tetris		TONGUE		TONGUE	OFF	Cat_Restudy_L1	41	Study	No	3	Cat_Restudy_L1	ON		3000								
A1E610OYLMKW82	Collector	1	36	2016-05-26T11:41:01-07:00	5	2	Stimuli/versionFstim.txt	Procedure/versionFproc.txt	Tetris		FINGER		FINGER	OFF	Cat_Restudy_L1	25	Study	No	3	Cat_Restudy_L1	ON		3000								
A1E610OYLMKW82	Collector	1	37	2016-05-26T11:41:06-07:00	5	2	Stimuli/versionFstim.txt	Procedure/versionFproc.txt	Tetris		FACE		FACE	OFF	Cat_Restudy_L1	40	Study	No	3	Cat_Restudy_L1	ON		3000								
A1E610OYLMKW82	Collector	1	38	2016-05-26T11:41:12-07:00	6	2	Stimuli/versionFstim.txt	Procedure/versionFproc.txt	Tetris		HAND		HAND	OFF	Cat_Restudy_L1	26	Study	No	3	Cat_Restudy_L1	ON		3000								
A1E610OYLMKW82	Collector	1	39	2016-05-26T11:41:16-07:00	4	2	Stimuli/versionFstim.txt	Procedure/versionFproc.txt	Tetris		FOOT 		FOOT 	OFF	Cat_Restudy_L1	24	Study	No	3	Cat_Restudy_L1	ON		3000								
A1E610OYLMKW82	Collector	1	40	2016-05-26T11:41:22-07:00	6	2	Stimuli/versionFstim.txt	Procedure/versionFproc.txt	Tetris		TOOTH		TOOTH	OFF	Cat_Restudy_L1	37	Study	No	3	Cat_Restudy_L1	ON		3000								
A1E610OYLMKW82	Collector	1	41	2016-05-26T11:41:27-07:00	5	2	Stimuli/versionFstim.txt	Procedure/versionFproc.txt	Tetris		LEGS		LEGS	OFF	Cat_Restudy_L1	22	Study	No	3	Cat_Restudy_L1	ON		3000								
A1E610OYLMKW82	Collector	1	42	2016-05-26T11:41:32-07:00	5	2	Stimuli/versionFstim.txt	Procedure/versionFproc.txt	Tetris		NECK		NECK	OFF	Cat_Restudy_L1	30	Study	No	3	Cat_Restudy_L1	ON		3000								
A1E610OYLMKW82	Collector	1	43	2016-05-26T11:41:42-07:00	10	2	Stimuli/versionFstim.txt	Procedure/versionFproc.txt	Tetris		n/a	n/a	n/a	n/a	n/a	0	Instruct	N/A	User	Click the button below for a new list.	OFF		1570								
A1E610OYLMKW82	Collector	1	44	2016-05-26T11:41:48-07:00	6	2	Stimuli/versionFstim.txt	Procedure/versionFproc.txt	Tetris		BROOCH		BROOCH	OFF	AdHoc_Restudy_L2	61	Study	No	3	AdHoc_Restudy_L2	ON		3000								
A1E610OYLMKW82	Collector	1	45	2016-05-26T11:41:53-07:00	5	2	Stimuli/versionFstim.txt	Procedure/versionFproc.txt	Tetris		BOBBY PIN		BOBBY PIN	OFF	AdHoc_Restudy_L2	56	Study	No	3	AdHoc_Restudy_L2	ON		3000								
A1E610OYLMKW82	Collector	1	46	2016-05-26T11:41:59-07:00	6	2	Stimuli/versionFstim.txt	Procedure/versionFproc.txt	Tetris		EYE SHADOW		EYE SHADOW	OFF	AdHoc_Restudy_L2	45	Study	No	3	AdHoc_Restudy_L2	ON		3000								
A1E610OYLMKW82	Collector	1	47	2016-05-26T11:42:03-07:00	4	2	Stimuli/versionFstim.txt	Procedure/versionFproc.txt	Tetris		HEADBAND		HEADBAND	OFF	AdHoc_Restudy_L2	44	Study	No	3	AdHoc_Restudy_L2	ON		3000								
A1E610OYLMKW82	Collector	1	48	2016-05-26T11:42:09-07:00	6	2	Stimuli/versionFstim.txt	Procedure/versionFproc.txt	Tetris		VEIL		VEIL	OFF	AdHoc_Restudy_L2	54	Study	No	3	AdHoc_Restudy_L2	ON		3000								
A1E610OYLMKW82	Collector	1	49	2016-05-26T11:42:13-07:00	4	2	Stimuli/versionFstim.txt	Procedure/versionFproc.txt	Tetris		MAKE UP		MAKE UP	OFF	AdHoc_Restudy_L2	57	Study	No	3	AdHoc_Restudy_L2	ON		3000								
A1E610OYLMKW82	Collector	1	50	2016-05-26T11:42:23-07:00	10	2	Stimuli/versionFstim.txt	Procedure/versionFproc.txt	Tetris		DIAMONDS		DIAMONDS	OFF	AdHoc_Restudy_L2	51	Study	No	3	AdHoc_Restudy_L2	ON		3000								
A1E610OYLMKW82	Collector	1	51	2016-05-26T11:42:29-07:00	6	2	Stimuli/versionFstim.txt	Procedure/versionFproc.txt	Tetris		BRACELET		BRACELET	OFF	AdHoc_Restudy_L2	58	Study	No	3	AdHoc_Restudy_L2	ON		3000								
A1E610OYLMKW82	Collector	1	52	2016-05-26T11:42:34-07:00	5	2	Stimuli/versionFstim.txt	Procedure/versionFproc.txt	Tetris		SCARF		SCARF	OFF	AdHoc_Restudy_L2	42	Study	No	3	AdHoc_Restudy_L2	ON		3000								
A1E610OYLMKW82	Collector	1	53	2016-05-26T11:42:39-07:00	5	2	Stimuli/versionFstim.txt	Procedure/versionFproc.txt	Tetris		SLIP		SLIP	OFF	AdHoc_Restudy_L2	53	Study	No	3	AdHoc_Restudy_L2	ON		3000								
A1E610OYLMKW82	Collector	1	54	2016-05-26T11:42:44-07:00	5	2	Stimuli/versionFstim.txt	Procedure/versionFproc.txt	Tetris		PEARLS		PEARLS	OFF	AdHoc_Restudy_L2	59	Study	No	3	AdHoc_Restudy_L2	ON		3000								
A1E610OYLMKW82	Collector	1	55	2016-05-26T11:42:49-07:00	5	2	Stimuli/versionFstim.txt	Procedure/versionFproc.txt	Tetris		HAT		HAT	OFF	AdHoc_Restudy_L2	43	Study	No	3	AdHoc_Restudy_L2	ON		3000								
A1E610OYLMKW82	Collector	1	56	2016-05-26T11:42:54-07:00	5	2	Stimuli/versionFstim.txt	Procedure/versionFproc.txt	Tetris		PENDANT		PENDANT	OFF	AdHoc_Restudy_L2	60	Study	No	3	AdHoc_Restudy_L2	ON		3000								
A1E610OYLMKW82	Collector	1	57	2016-05-26T11:42:59-07:00	5	2	Stimuli/versionFstim.txt	Procedure/versionFproc.txt	Tetris		GOWN		GOWN	OFF	AdHoc_Restudy_L2	55	Study	No	3	AdHoc_Restudy_L2	ON		3000								
A1E610OYLMKW82	Collector	1	58	2016-05-26T11:43:08-07:00	9	2	Stimuli/versionFstim.txt	Procedure/versionFproc.txt	Tetris		LIPSTICK		LIPSTICK	OFF	AdHoc_Restudy_L2	46	Study	No	3	AdHoc_Restudy_L2	ON		3000								
A1E610OYLMKW82	Collector	1	59	2016-05-26T11:43:19-07:00	11	2	Stimuli/versionFstim.txt	Procedure/versionFproc.txt	Tetris		PANTYHOSE		PANTYHOSE	OFF	AdHoc_Restudy_L2	52	Study	No	3	AdHoc_Restudy_L2	ON		3000								
A1E610OYLMKW82	Collector	1	60	2016-05-26T11:43:23-07:00	4	2	Stimuli/versionFstim.txt	Procedure/versionFproc.txt	Tetris		SHIRT		SHIRT	OFF	AdHoc_Restudy_L2	49	Study	No	3	AdHoc_Restudy_L2	ON		3000								
A1E610OYLMKW82	Collector	1	61	2016-05-26T11:43:28-07:00	5	2	Stimuli/versionFstim.txt	Procedure/versionFproc.txt	Tetris		JEANS		JEANS	OFF	AdHoc_Restudy_L2	47	Study	No	3	AdHoc_Restudy_L2	ON		3000								
A1E610OYLMKW82	Collector	1	62	2016-05-26T11:43:32-07:00	4	2	Stimuli/versionFstim.txt	Procedure/versionFproc.txt	Tetris		RING		RING	OFF	AdHoc_Restudy_L2	50	Study	No	3	AdHoc_Restudy_L2	ON		3000								
A1E610OYLMKW82	Collector	1	63	2016-05-26T11:43:37-07:00	5	2	Stimuli/versionFstim.txt	Procedure/versionFproc.txt	Tetris		CONCEALER		CONCEALER	OFF	AdHoc_Restudy_L2	48	Study	No	3	AdHoc_Restudy_L2	ON		3000								
A1E610OYLMKW82	Collector	1	64	2016-05-26T11:43:41-07:00	4	2	Stimuli/versionFstim.txt	Procedure/versionFproc.txt	Tetris		n/a	n/a	n/a	n/a	n/a	0	Instruct	N/A	User	Restudy Instructions: You will now view this list again, but in a different order. Click the button below to begin.	OFF		2200								
A1E610OYLMKW82	Collector	1	65	2016-05-26T11:43:51-07:00	10	2	Stimuli/versionFstim.txt	Procedure/versionFproc.txt	Tetris		HEADBAND		HEADBAND	OFF	AdHoc_Restudy_L2	64	Study	No	3	AdHoc_Restudy_L2	ON		3000								
A1E610OYLMKW82	Collector	1	66	2016-05-26T11:43:56-07:00	5	2	Stimuli/versionFstim.txt	Procedure/versionFproc.txt	Tetris		PEARLS		PEARLS	OFF	AdHoc_Restudy_L2	79	Study	No	3	AdHoc_Restudy_L2	ON		3000								
A1E610OYLMKW82	Collector	1	67	2016-05-26T11:44:01-07:00	5	2	Stimuli/versionFstim.txt	Procedure/versionFproc.txt	Tetris		BOBBY PIN		BOBBY PIN	OFF	AdHoc_Restudy_L2	76	Study	No	3	AdHoc_Restudy_L2	ON		3000								
A1E610OYLMKW82	Collector	1	68	2016-05-26T11:44:07-07:00	6	2	Stimuli/versionFstim.txt	Procedure/versionFproc.txt	Tetris		PENDANT		PENDANT	OFF	AdHoc_Restudy_L2	80	Study	No	3	AdHoc_Restudy_L2	ON		3000								
A1E610OYLMKW82	Collector	1	69	2016-05-26T11:44:12-07:00	5	2	Stimuli/versionFstim.txt	Procedure/versionFproc.txt	Tetris		BRACELET		BRACELET	OFF	AdHoc_Restudy_L2	78	Study	No	3	AdHoc_Restudy_L2	ON		3000								
A1E610OYLMKW82	Collector	1	70	2016-05-26T11:44:18-07:00	6	2	Stimuli/versionFstim.txt	Procedure/versionFproc.txt	Tetris		VEIL		VEIL	OFF	AdHoc_Restudy_L2	74	Study	No	3	AdHoc_Restudy_L2	ON		3000								
A1E610OYLMKW82	Collector	1	71	2016-05-26T11:44:23-07:00	5	2	Stimuli/versionFstim.txt	Procedure/versionFproc.txt	Tetris		GOWN		GOWN	OFF	AdHoc_Restudy_L2	75	Study	No	3	AdHoc_Restudy_L2	ON		3000								
A1E610OYLMKW82	Collector	1	72	2016-05-26T11:44:29-07:00	6	2	Stimuli/versionFstim.txt	Procedure/versionFproc.txt	Tetris		CONCEALER		CONCEALER	OFF	AdHoc_Restudy_L2	68	Study	No	3	AdHoc_Restudy_L2	ON		3000								
A1E610OYLMKW82	Collector	1	73	2016-05-26T11:44:35-07:00	6	2	Stimuli/versionFstim.txt	Procedure/versionFproc.txt	Tetris		SHIRT		SHIRT	OFF	AdHoc_Restudy_L2	69	Study	No	3	AdHoc_Restudy_L2	ON		3000								
A1E610OYLMKW82	Collector	1	74	2016-05-26T11:44:39-07:00	4	2	Stimuli/versionFstim.txt	Procedure/versionFproc.txt	Tetris		RING		RING	OFF	AdHoc_Restudy_L2	70	Study	No	3	AdHoc_Restudy_L2	ON		3000								
A1E610OYLMKW82	Collector	1	75	2016-05-26T11:44:45-07:00	6	2	Stimuli/versionFstim.txt	Procedure/versionFproc.txt	Tetris		LIPSTICK		LIPSTICK	OFF	AdHoc_Restudy_L2	66	Study	No	3	AdHoc_Restudy_L2	ON		3000								
A1E610OYLMKW82	Collector	1	76	2016-05-26T11:44:49-07:00	4	2	Stimuli/versionFstim.txt	Procedure/versionFproc.txt	Tetris		DIAMONDS		DIAMONDS	OFF	AdHoc_Restudy_L2	71	Study	No	3	AdHoc_Restudy_L2	ON		3000								
A1E610OYLMKW82	Collector	1	77	2016-05-26T11:44:56-07:00	7	2	Stimuli/versionFstim.txt	Procedure/versionFproc.txt	Tetris		SCARF		SCARF	OFF	AdHoc_Restudy_L2	62	Study	No	3	AdHoc_Restudy_L2	ON		3000								
A1E610OYLMKW82	Collector	1	78	2016-05-26T11:45:00-07:00	4	2	Stimuli/versionFstim.txt	Procedure/versionFproc.txt	Tetris		HAT		HAT	OFF	AdHoc_Restudy_L2	63	Study	No	3	AdHoc_Restudy_L2	ON		3000								
A1E610OYLMKW82	Collector	1	79	2016-05-26T11:45:07-07:00	7	2	Stimuli/versionFstim.txt	Procedure/versionFproc.txt	Tetris		PANTYHOSE		PANTYHOSE	OFF	AdHoc_Restudy_L2	72	Study	No	3	AdHoc_Restudy_L2	ON		3000								
A1E610OYLMKW82	Collector	1	80	2016-05-26T11:45:11-07:00	4	2	Stimuli/versionFstim.txt	Procedure/versionFproc.txt	Tetris		JEANS		JEANS	OFF	AdHoc_Restudy_L2	67	Study	No	3	AdHoc_Restudy_L2	ON		3000								
A1E610OYLMKW82	Collector	1	81	2016-05-26T11:45:17-07:00	6	2	Stimuli/versionFstim.txt	Procedure/versionFproc.txt	Tetris		SLIP		SLIP	OFF	AdHoc_Restudy_L2	73	Study	No	3	AdHoc_Restudy_L2	ON		3000								
A1E610OYLMKW82	Collector	1	82	2016-05-26T11:45:21-07:00	4	2	Stimuli/versionFstim.txt	Procedure/versionFproc.txt	Tetris		MAKE UP		MAKE UP	OFF	AdHoc_Restudy_L2	77	Study	No	3	AdHoc_Restudy_L2	ON		3000								
A1E610OYLMKW82	Collector	1	83	2016-05-26T11:45:27-07:00	6	2	Stimuli/versionFstim.txt	Procedure/versionFproc.txt	Tetris		BROOCH		BROOCH	OFF	AdHoc_Restudy_L2	81	Study	No	3	AdHoc_Restudy_L2	ON		3000								
A1E610OYLMKW82	Collector	1	84	2016-05-26T11:45:32-07:00	5	2	Stimuli/versionFstim.txt	Procedure/versionFproc.txt	Tetris		EYE SHADOW		EYE SHADOW	OFF	AdHoc_Restudy_L2	65	Study	No	3	AdHoc_Restudy_L2	ON		3000								
A1E610OYLMKW82	Collector	1	85	2016-05-26T11:45:38-07:00	6	2	Stimuli/versionFstim.txt	Procedure/versionFproc.txt	Tetris		n/a	n/a	n/a	n/a	n/a	0	Instruct	N/A	User	Click the button below for a new list.	OFF		2980								
A1E610OYLMKW82	Collector	1	86	2016-05-26T11:45:42-07:00	4	2	Stimuli/versionFstim.txt	Procedure/versionFproc.txt	Tetris		COUCH		COUCH	OFF	Cat_Restudy_L3	84	Study	No	3	Cat_Restudy_L3	ON		3000								
A1E610OYLMKW82	Collector	1	87	2016-05-26T11:45:48-07:00	6	2	Stimuli/versionFstim.txt	Procedure/versionFproc.txt	Tetris		TELEVISION		TELEVISION	OFF	Cat_Restudy_L3	85	Study	No	3	Cat_Restudy_L3	ON		3000								
A1E610OYLMKW82	Collector	1	88	2016-05-26T11:45:52-07:00	4	2	Stimuli/versionFstim.txt	Procedure/versionFproc.txt	Tetris		BOOKCASE		BOOKCASE	OFF	Cat_Restudy_L3	88	Study	No	3	Cat_Restudy_L3	ON		3000								
A1E610OYLMKW82	Collector	1	89	2016-05-26T11:45:58-07:00	6	2	Stimuli/versionFstim.txt	Procedure/versionFproc.txt	Tetris		ARMOIRE		ARMOIRE	OFF	Cat_Restudy_L3	82	Study	No	3	Cat_Restudy_L3	ON		3000								
A1E610OYLMKW82	Collector	1	90	2016-05-26T11:46:10-07:00	12	2	Stimuli/versionFstim.txt	Procedure/versionFproc.txt	Tetris		CRADLE		CRADLE	OFF	Cat_Restudy_L3	83	Study	No	3	Cat_Restudy_L3	ON		3000								
A1E610OYLMKW82	Collector	1	91	2016-05-26T11:46:15-07:00	5	2	Stimuli/versionFstim.txt	Procedure/versionFproc.txt	Tetris		COFFEE TABLE		COFFEE TABLE	OFF	Cat_Restudy_L3	87	Study	No	3	Cat_Restudy_L3	ON		3000								
A1E610OYLMKW82	Collector	1	92	2016-05-26T11:46:21-07:00	6	2	Stimuli/versionFstim.txt	Procedure/versionFproc.txt	Tetris		MIRROR		MIRROR	OFF	Cat_Restudy_L3	98	Study	No	3	Cat_Restudy_L3	ON		3000								
A1E610OYLMKW82	Collector	1	93	2016-05-26T11:46:28-07:00	7	2	Stimuli/versionFstim.txt	Procedure/versionFproc.txt	Tetris		LOVE SEAT		LOVE SEAT	OFF	Cat_Restudy_L3	96	Study	No	3	Cat_Restudy_L3	ON		3000								
A1E610OYLMKW82	Collector	1	94	2016-05-26T11:46:34-07:00	6	2	Stimuli/versionFstim.txt	Procedure/versionFproc.txt	Tetris		ROCKING CHAIR		ROCKING CHAIR	OFF	Cat_Restudy_L3	100	Study	No	3	Cat_Restudy_L3	ON		3000								
A1E610OYLMKW82	Collector	1	95	2016-05-26T11:46:40-07:00	6	2	Stimuli/versionFstim.txt	Procedure/versionFproc.txt	Tetris		CHAISE		CHAISE	OFF	Cat_Restudy_L3	97	Study	No	3	Cat_Restudy_L3	ON		3000								
A1E610OYLMKW82	Collector	1	96	2016-05-26T11:46:46-07:00	6	2	Stimuli/versionFstim.txt	Procedure/versionFproc.txt	Tetris		RUG		RUG	OFF	Cat_Restudy_L3	86	Study	No	3	Cat_Restudy_L3	ON		3000								
A1E610OYLMKW82	Collector	1	97	2016-05-26T11:46:51-07:00	5	2	Stimuli/versionFstim.txt	Procedure/versionFproc.txt	Tetris		CHEST		CHEST	OFF	Cat_Restudy_L3	90	Study	No	3	Cat_Restudy_L3	ON		3000								
A1E610OYLMKW82	Collector	1	98	2016-05-26T11:46:58-07:00	7	2	Stimuli/versionFstim.txt	Procedure/versionFproc.txt	Tetris		OTTOMAN		OTTOMAN	OFF	Cat_Restudy_L3	89	Study	No	3	Cat_Restudy_L3	ON		3000								
A1E610OYLMKW82	Collector	1	99	2016-05-26T11:47:04-07:00	6	2	Stimuli/versionFstim.txt	Procedure/versionFproc.txt	Tetris		CHINA CLOSET		CHINA CLOSET	OFF	Cat_Restudy_L3	99	Study	No	3	Cat_Restudy_L3	ON		3000								
A1E610OYLMKW82	Collector	1	100	2016-05-26T11:47:09-07:00	5	2	Stimuli/versionFstim.txt	Procedure/versionFproc.txt	Tetris		PIANO		PIANO	OFF	Cat_Restudy_L3	91	Study	No	3	Cat_Restudy_L3	ON		3000								
A1E610OYLMKW82	Collector	1	101	2016-05-26T11:47:14-07:00	5	2	Stimuli/versionFstim.txt	Procedure/versionFproc.txt	Tetris		DAVENPORT		DAVENPORT	OFF	Cat_Restudy_L3	101	Study	No	3	Cat_Restudy_L3	ON		3000								
A1E610OYLMKW82	Collector	1	102	2016-05-26T11:47:21-07:00	7	2	Stimuli/versionFstim.txt	Procedure/versionFproc.txt	Tetris		CRIB		CRIB	OFF	Cat_Restudy_L3	94	Study	No	3	Cat_Restudy_L3	ON		3000								
A1E610OYLMKW82	Collector	1	103	2016-05-26T11:47:25-07:00	4	2	Stimuli/versionFstim.txt	Procedure/versionFproc.txt	Tetris		COT		COT	OFF	Cat_Restudy_L3	95	Study	No	3	Cat_Restudy_L3	ON		3000								
A1E610OYLMKW82	Collector	1	104	2016-05-26T11:47:31-07:00	6	2	Stimuli/versionFstim.txt	Procedure/versionFproc.txt	Tetris		END TABLE		END TABLE	OFF	Cat_Restudy_L3	93	Study	No	3	Cat_Restudy_L3	ON		3000								
A1E610OYLMKW82	Collector	1	105	2016-05-26T11:47:36-07:00	5	2	Stimuli/versionFstim.txt	Procedure/versionFproc.txt	Tetris		FOOTSTOOL		FOOTSTOOL	OFF	Cat_Restudy_L3	92	Study	No	3	Cat_Restudy_L3	ON		3000								
A1E610OYLMKW82	Collector	1	106	2016-05-26T11:47:41-07:00	5	2	Stimuli/versionFstim.txt	Procedure/versionFproc.txt	Tetris		n/a	n/a	n/a	n/a	n/a	0	Instruct	N/A	User	Restudy Instructions: You will now view this list again, but in a different order. Click the button below to begin.	OFF		2670								
A1E610OYLMKW82	Collector	1	107	2016-05-26T11:47:46-07:00	5	2	Stimuli/versionFstim.txt	Procedure/versionFproc.txt	Tetris		COUCH		COUCH	OFF	Cat_Restudy_L3	104	Study	No	3	Cat_Restudy_L3	ON		3000								
A1E610OYLMKW82	Collector	1	108	2016-05-26T11:47:51-07:00	5	2	Stimuli/versionFstim.txt	Procedure/versionFproc.txt	Tetris		BOOKCASE		BOOKCASE	OFF	Cat_Restudy_L3	108	Study	No	3	Cat_Restudy_L3	ON		3000								
A1E610OYLMKW82	Collector	1	109	2016-05-26T11:47:56-07:00	5	2	Stimuli/versionFstim.txt	Procedure/versionFproc.txt	Tetris		CRIB		CRIB	OFF	Cat_Restudy_L3	114	Study	No	3	Cat_Restudy_L3	ON		3000								
A1E610OYLMKW82	Collector	1	110	2016-05-26T11:48:02-07:00	6	2	Stimuli/versionFstim.txt	Procedure/versionFproc.txt	Tetris		MIRROR		MIRROR	OFF	Cat_Restudy_L3	118	Study	No	3	Cat_Restudy_L3	ON		3000								
A1E610OYLMKW82	Collector	1	111	2016-05-26T11:48:06-07:00	4	2	Stimuli/versionFstim.txt	Procedure/versionFproc.txt	Tetris		COT		COT	OFF	Cat_Restudy_L3	115	Study	No	3	Cat_Restudy_L3	ON		3000								
A1E610OYLMKW82	Collector	1	112	2016-05-26T11:48:12-07:00	6	2	Stimuli/versionFstim.txt	Procedure/versionFproc.txt	Tetris		ROCKING CHAIR		ROCKING CHAIR	OFF	Cat_Restudy_L3	120	Study	No	3	Cat_Restudy_L3	ON		3000								
A1E610OYLMKW82	Collector	1	113	2016-05-26T11:48:16-07:00	4	2	Stimuli/versionFstim.txt	Procedure/versionFproc.txt	Tetris		CHINA CLOSET		CHINA CLOSET	OFF	Cat_Restudy_L3	119	Study	No	3	Cat_Restudy_L3	ON		3000								
A1E610OYLMKW82	Collector	1	114	2016-05-26T11:48:22-07:00	6	2	Stimuli/versionFstim.txt	Procedure/versionFproc.txt	Tetris		RUG		RUG	OFF	Cat_Restudy_L3	106	Study	No	3	Cat_Restudy_L3	ON		3000								
A1E610OYLMKW82	Collector	1	115	2016-05-26T11:48:27-07:00	5	2	Stimuli/versionFstim.txt	Procedure/versionFproc.txt	Tetris		END TABLE		END TABLE	OFF	Cat_Restudy_L3	113	Study	No	3	Cat_Restudy_L3	ON		3000								
A1E610OYLMKW82	Collector	1	116	2016-05-26T11:48:33-07:00	6	2	Stimuli/versionFstim.txt	Procedure/versionFproc.txt	Tetris		CHEST		CHEST	OFF	Cat_Restudy_L3	110	Study	No	3	Cat_Restudy_L3	ON		3000								
A1E610OYLMKW82	Collector	1	117	2016-05-26T11:48:37-07:00	4	2	Stimuli/versionFstim.txt	Procedure/versionFproc.txt	Tetris		ARMOIRE		ARMOIRE	OFF	Cat_Restudy_L3	102	Study	No	3	Cat_Restudy_L3	ON		3000								
A1E610OYLMKW82	Collector	1	118	2016-05-26T11:48:43-07:00	6	2	Stimuli/versionFstim.txt	Procedure/versionFproc.txt	Tetris		FOOTSTOOL		FOOTSTOOL	OFF	Cat_Restudy_L3	112	Study	No	3	Cat_Restudy_L3	ON		3000								
A1E610OYLMKW82	Collector	1	119	2016-05-26T11:48:47-07:00	4	2	Stimuli/versionFstim.txt	Procedure/versionFproc.txt	Tetris		COFFEE TABLE		COFFEE TABLE	OFF	Cat_Restudy_L3	107	Study	No	3	Cat_Restudy_L3	ON		3000								
A1E610OYLMKW82	Collector	1	120	2016-05-26T11:48:53-07:00	6	2	Stimuli/versionFstim.txt	Procedure/versionFproc.txt	Tetris		DAVENPORT		DAVENPORT	OFF	Cat_Restudy_L3	121	Study	No	3	Cat_Restudy_L3	ON		3000								
A1E610OYLMKW82	Collector	1	121	2016-05-26T11:48:58-07:00	5	2	Stimuli/versionFstim.txt	Procedure/versionFproc.txt	Tetris		PIANO		PIANO	OFF	Cat_Restudy_L3	111	Study	No	3	Cat_Restudy_L3	ON		3000								
A1E610OYLMKW82	Collector	1	122	2016-05-26T11:49:04-07:00	6	2	Stimuli/versionFstim.txt	Procedure/versionFproc.txt	Tetris		TELEVISION		TELEVISION	OFF	Cat_Restudy_L3	105	Study	No	3	Cat_Restudy_L3	ON		3000								
A1E610OYLMKW82	Collector	1	123	2016-05-26T11:49:09-07:00	5	2	Stimuli/versionFstim.txt	Procedure/versionFproc.txt	Tetris		LOVE SEAT		LOVE SEAT	OFF	Cat_Restudy_L3	116	Study	No	3	Cat_Restudy_L3	ON		3000								
A1E610OYLMKW82	Collector	1	124	2016-05-26T11:49:14-07:00	5	2	Stimuli/versionFstim.txt	Procedure/versionFproc.txt	Tetris		CHAISE		CHAISE	OFF	Cat_Restudy_L3	117	Study	No	3	Cat_Restudy_L3	ON		3000								
A1E610OYLMKW82	Collector	1	125	2016-05-26T11:49:20-07:00	6	2	Stimuli/versionFstim.txt	Procedure/versionFproc.txt	Tetris		OTTOMAN		OTTOMAN	OFF	Cat_Restudy_L3	109	Study	No	3	Cat_Restudy_L3	ON		3000								
A1E610OYLMKW82	Collector	1	126	2016-05-26T11:49:25-07:00	5	2	Stimuli/versionFstim.txt	Procedure/versionFproc.txt	Tetris		CRADLE		CRADLE	OFF	Cat_Restudy_L3	103	Study	No	3	Cat_Restudy_L3	ON		3000								
A1E610OYLMKW82	Collector	1	127	2016-05-26T11:50:14-07:00	49	2	Stimuli/versionFstim.txt	Procedure/versionFproc.txt	Tetris		n/a	n/a	n/a	n/a	n/a	0	Instruct	N/A	User	Click the button below for a new list.	OFF		42100								
A1E610OYLMKW82	Collector	1	128	2016-05-26T11:50:19-07:00	5	2	Stimuli/versionFstim.txt	Procedure/versionFproc.txt	Tetris		SHRUB		SHRUB	OFF	Unrel_Restudy_L4	132	Study	No	3	Unrel_Restudy_L4	ON		3000								
A1E610OYLMKW82	Collector	1	129	2016-05-26T11:50:30-07:00	11	2	Stimuli/versionFstim.txt	Procedure/versionFproc.txt	Tetris		WHEEL		WHEEL	OFF	Unrel_Restudy_L4	138	Study	No	3	Unrel_Restudy_L4	ON		3000								
A1E610OYLMKW82	Collector	1	130	2016-05-26T11:50:40-07:00	10	2	Stimuli/versionFstim.txt	Procedure/versionFproc.txt	Tetris		NECTAR		NECTAR	OFF	Unrel_Restudy_L4	137	Study	No	3	Unrel_Restudy_L4	ON		3000								
A1E610OYLMKW82	Collector	1	131	2016-05-26T11:50:45-07:00	5	2	Stimuli/versionFstim.txt	Procedure/versionFproc.txt	Tetris		TULIP		TULIP	OFF	Unrel_Restudy_L4	122	Study	No	3	Unrel_Restudy_L4	ON		3000								
A1E610OYLMKW82	Collector	1	132	2016-05-26T11:50:51-07:00	6	2	Stimuli/versionFstim.txt	Procedure/versionFproc.txt	Tetris		FOAM		FOAM	OFF	Unrel_Restudy_L4	125	Study	No	3	Unrel_Restudy_L4	ON		3000								
A1E610OYLMKW82	Collector	1	133	2016-05-26T11:50:56-07:00	5	2	Stimuli/versionFstim.txt	Procedure/versionFproc.txt	Tetris		PAIL		PAIL	OFF	Unrel_Restudy_L4	136	Study	No	3	Unrel_Restudy_L4	ON		3000								
A1E610OYLMKW82	Collector	1	134	2016-05-26T11:51:01-07:00	5	2	Stimuli/versionFstim.txt	Procedure/versionFproc.txt	Tetris		CHEEK		CHEEK	OFF	Unrel_Restudy_L4	135	Study	No	3	Unrel_Restudy_L4	ON		3000								
A1E610OYLMKW82	Collector	1	135	2016-05-26T11:51:06-07:00	5	2	Stimuli/versionFstim.txt	Procedure/versionFproc.txt	Tetris		OTTER		OTTER	OFF	Unrel_Restudy_L4	129	Study	No	3	Unrel_Restudy_L4	ON		3000								
A1E610OYLMKW82	Collector	1	136	2016-05-26T11:51:11-07:00	5	2	Stimuli/versionFstim.txt	Procedure/versionFproc.txt	Tetris		COSTUME		COSTUME	OFF	Unrel_Restudy_L4	130	Study	No	3	Unrel_Restudy_L4	ON		3000								
A1E610OYLMKW82	Collector	1	137	2016-05-26T11:51:16-07:00	5	2	Stimuli/versionFstim.txt	Procedure/versionFproc.txt	Tetris		LAND		LAND	OFF	Unrel_Restudy_L4	127	Study	No	3	Unrel_Restudy_L4	ON		3000								
A1E610OYLMKW82	Collector	1	138	2016-05-26T11:51:22-07:00	6	2	Stimuli/versionFstim.txt	Procedure/versionFproc.txt	Tetris		GAUZE		GAUZE	OFF	Unrel_Restudy_L4	131	Study	No	3	Unrel_Restudy_L4	ON		3000								
A1E610OYLMKW82	Collector	1	139	2016-05-26T11:51:26-07:00	4	2	Stimuli/versionFstim.txt	Procedure/versionFproc.txt	Tetris		BEVERAGE		BEVERAGE	OFF	Unrel_Restudy_L4	128	Study	No	3	Unrel_Restudy_L4	ON		3000								
A1E610OYLMKW82	Collector	1	140	2016-05-26T11:51:32-07:00	6	2	Stimuli/versionFstim.txt	Procedure/versionFproc.txt	Tetris		MIST		MIST	OFF	Unrel_Restudy_L4	141	Study	No	3	Unrel_Restudy_L4	ON		3000								
A1E610OYLMKW82	Collector	1	141	2016-05-26T11:51:37-07:00	5	2	Stimuli/versionFstim.txt	Procedure/versionFproc.txt	Tetris		CLOAK		CLOAK	OFF	Unrel_Restudy_L4	139	Study	No	3	Unrel_Restudy_L4	ON		3000								
A1E610OYLMKW82	Collector	1	142	2016-05-26T11:51:42-07:00	5	2	Stimuli/versionFstim.txt	Procedure/versionFproc.txt	Tetris		VOTE		VOTE	OFF	Unrel_Restudy_L4	126	Study	No	3	Unrel_Restudy_L4	ON		3000								
A1E610OYLMKW82	Collector	1	143	2016-05-26T11:51:47-07:00	5	2	Stimuli/versionFstim.txt	Procedure/versionFproc.txt	Tetris		KNOB		KNOB	OFF	Unrel_Restudy_L4	123	Study	No	3	Unrel_Restudy_L4	ON		3000								
A1E610OYLMKW82	Collector	1	144	2016-05-26T11:51:52-07:00	5	2	Stimuli/versionFstim.txt	Procedure/versionFproc.txt	Tetris		LOLLIPOP		LOLLIPOP	OFF	Unrel_Restudy_L4	140	Study	No	3	Unrel_Restudy_L4	ON		3000								
A1E610OYLMKW82	Collector	1	145	2016-05-26T11:51:57-07:00	5	2	Stimuli/versionFstim.txt	Procedure/versionFproc.txt	Tetris		DAIRY		DAIRY	OFF	Unrel_Restudy_L4	133	Study	No	3	Unrel_Restudy_L4	ON		3000								
A1E610OYLMKW82	Collector	1	146	2016-05-26T11:52:03-07:00	6	2	Stimuli/versionFstim.txt	Procedure/versionFproc.txt	Tetris		STARS		STARS	OFF	Unrel_Restudy_L4	124	Study	No	3	Unrel_Restudy_L4	ON		3000								
A1E610OYLMKW82	Collector	1	147	2016-05-26T11:52:07-07:00	4	2	Stimuli/versionFstim.txt	Procedure/versionFproc.txt	Tetris		DANCER		DANCER	OFF	Unrel_Restudy_L4	134	Study	No	3	Unrel_Restudy_L4	ON		3000								
A1E610OYLMKW82	Collector	1	148	2016-05-26T11:52:14-07:00	7	2	Stimuli/versionFstim.txt	Procedure/versionFproc.txt	Tetris		n/a	n/a	n/a	n/a	n/a	0	Instruct	N/A	User	Restudy Instructions: You will now view this list again, but in a different order. Click the button below to begin.	OFF		4510								
A1E610OYLMKW82	Collector	1	149	2016-05-26T11:52:19-07:00	5	2	Stimuli/versionFstim.txt	Procedure/versionFproc.txt	Tetris		DANCER		DANCER	OFF	Unrel_Restudy_L4	154	Study	No	3	Unrel_Restudy_L4	ON		3000								
A1E610OYLMKW82	Collector	1	150	2016-05-26T11:52:28-07:00	9	2	Stimuli/versionFstim.txt	Procedure/versionFproc.txt	Tetris		COSTUME		COSTUME	OFF	Unrel_Restudy_L4	150	Study	No	3	Unrel_Restudy_L4	ON		3000								
A1E610OYLMKW82	Collector	1	151	2016-05-26T11:52:35-07:00	7	2	Stimuli/versionFstim.txt	Procedure/versionFproc.txt	Tetris		STARS		STARS	OFF	Unrel_Restudy_L4	144	Study	No	3	Unrel_Restudy_L4	ON		3000								
A1E610OYLMKW82	Collector	1	152	2016-05-26T11:52:40-07:00	5	2	Stimuli/versionFstim.txt	Procedure/versionFproc.txt	Tetris		WHEEL		WHEEL	OFF	Unrel_Restudy_L4	158	Study	No	3	Unrel_Restudy_L4	ON		3000								
A1E610OYLMKW82	Collector	1	153	2016-05-26T11:52:45-07:00	5	2	Stimuli/versionFstim.txt	Procedure/versionFproc.txt	Tetris		FOAM		FOAM	OFF	Unrel_Restudy_L4	145	Study	No	3	Unrel_Restudy_L4	ON		3000								
A1E610OYLMKW82	Collector	1	154	2016-05-26T11:52:51-07:00	6	2	Stimuli/versionFstim.txt	Procedure/versionFproc.txt	Tetris		PAIL		PAIL	OFF	Unrel_Restudy_L4	156	Study	No	3	Unrel_Restudy_L4	ON		3000								
A1E610OYLMKW82	Collector	1	155	2016-05-26T11:52:56-07:00	5	2	Stimuli/versionFstim.txt	Procedure/versionFproc.txt	Tetris		MIST		MIST	OFF	Unrel_Restudy_L4	161	Study	No	3	Unrel_Restudy_L4	ON		3000								
A1E610OYLMKW82	Collector	1	156	2016-05-26T11:53:01-07:00	5	2	Stimuli/versionFstim.txt	Procedure/versionFproc.txt	Tetris		LOLLIPOP		LOLLIPOP	OFF	Unrel_Restudy_L4	160	Study	No	3	Unrel_Restudy_L4	ON		3000								
A1E610OYLMKW82	Collector	1	157	2016-05-26T11:53:06-07:00	5	2	Stimuli/versionFstim.txt	Procedure/versionFproc.txt	Tetris		TULIP		TULIP	OFF	Unrel_Restudy_L4	142	Study	No	3	Unrel_Restudy_L4	ON		3000								
A1E610OYLMKW82	Collector	1	158	2016-05-26T11:53:11-07:00	5	2	Stimuli/versionFstim.txt	Procedure/versionFproc.txt	Tetris		NECTAR		NECTAR	OFF	Unrel_Restudy_L4	157	Study	No	3	Unrel_Restudy_L4	ON		3000								
A1E610OYLMKW82	Collector	1	159	2016-05-26T11:53:16-07:00	5	2	Stimuli/versionFstim.txt	Procedure/versionFproc.txt	Tetris		CHEEK		CHEEK	OFF	Unrel_Restudy_L4	155	Study	No	3	Unrel_Restudy_L4	ON		3000								
A1E610OYLMKW82	Collector	1	160	2016-05-26T11:53:22-07:00	6	2	Stimuli/versionFstim.txt	Procedure/versionFproc.txt	Tetris		GAUZE		GAUZE	OFF	Unrel_Restudy_L4	151	Study	No	3	Unrel_Restudy_L4	ON		3000								
A1E610OYLMKW82	Collector	1	161	2016-05-26T11:53:26-07:00	4	2	Stimuli/versionFstim.txt	Procedure/versionFproc.txt	Tetris		KNOB		KNOB	OFF	Unrel_Restudy_L4	143	Study	No	3	Unrel_Restudy_L4	ON		3000								
A1E610OYLMKW82	Collector	1	162	2016-05-26T11:53:32-07:00	6	2	Stimuli/versionFstim.txt	Procedure/versionFproc.txt	Tetris		DAIRY		DAIRY	OFF	Unrel_Restudy_L4	153	Study	No	3	Unrel_Restudy_L4	ON		3000								
A1E610OYLMKW82	Collector	1	163	2016-05-26T11:53:36-07:00	4	2	Stimuli/versionFstim.txt	Procedure/versionFproc.txt	Tetris		OTTER		OTTER	OFF	Unrel_Restudy_L4	149	Study	No	3	Unrel_Restudy_L4	ON		3000								
A1E610OYLMKW82	Collector	1	164	2016-05-26T11:53:42-07:00	6	2	Stimuli/versionFstim.txt	Procedure/versionFproc.txt	Tetris		LAND		LAND	OFF	Unrel_Restudy_L4	147	Study	No	3	Unrel_Restudy_L4	ON		3000								
A1E610OYLMKW82	Collector	1	165	2016-05-26T11:53:46-07:00	4	2	Stimuli/versionFstim.txt	Procedure/versionFproc.txt	Tetris		BEVERAGE		BEVERAGE	OFF	Unrel_Restudy_L4	148	Study	No	3	Unrel_Restudy_L4	ON		3000								
A1E610OYLMKW82	Collector	1	166	2016-05-26T11:53:52-07:00	6	2	Stimuli/versionFstim.txt	Procedure/versionFproc.txt	Tetris		CLOAK		CLOAK	OFF	Unrel_Restudy_L4	159	Study	No	3	Unrel_Restudy_L4	ON		3000								
A1E610OYLMKW82	Collector	1	167	2016-05-26T11:53:57-07:00	5	2	Stimuli/versionFstim.txt	Procedure/versionFproc.txt	Tetris		VOTE		VOTE	OFF	Unrel_Restudy_L4	146	Study	No	3	Unrel_Restudy_L4	ON		3000								
A1E610OYLMKW82	Collector	1	168	2016-05-26T11:54:02-07:00	5	2	Stimuli/versionFstim.txt	Procedure/versionFproc.txt	Tetris		SHRUB		SHRUB	OFF	Unrel_Restudy_L4	152	Study	No	3	Unrel_Restudy_L4	ON		3000								
A1E610OYLMKW82	Collector	1	169	2016-05-26T11:54:06-07:00	4	2	Stimuli/versionFstim.txt	Procedure/versionFproc.txt	Tetris		n/a	n/a	n/a	n/a	n/a	0	Instruct	N/A	User	Click the button below for a new list.	OFF		2380								
A1E610OYLMKW82	Collector	1	170	2016-05-26T11:54:13-07:00	7	2	Stimuli/versionFstim.txt	Procedure/versionFproc.txt	Tetris		ANCHOR		ANCHOR	OFF	Unrel_Restudy_L5	164	Study	No	3	Unrel_Restudy_L5	ON		3000								
A1E610OYLMKW82	Collector	1	171	2016-05-26T11:54:17-07:00	4	2	Stimuli/versionFstim.txt	Procedure/versionFproc.txt	Tetris		AUNT		AUNT	OFF	Unrel_Restudy_L5	174	Study	No	3	Unrel_Restudy_L5	ON		3000								
A1E610OYLMKW82	Collector	1	172	2016-05-26T11:54:23-07:00	6	2	Stimuli/versionFstim.txt	Procedure/versionFproc.txt	Tetris		MOP		MOP	OFF	Unrel_Restudy_L5	180	Study	No	3	Unrel_Restudy_L5	ON		3000								
A1E610OYLMKW82	Collector	1	173	2016-05-26T11:54:53-07:00	30	2	Stimuli/versionFstim.txt	Procedure/versionFproc.txt	Tetris		LANE		LANE	OFF	Unrel_Restudy_L5	173	Study	No	3	Unrel_Restudy_L5	ON		3000								
A1E610OYLMKW82	Collector	1	174	2016-05-26T11:54:59-07:00	6	2	Stimuli/versionFstim.txt	Procedure/versionFproc.txt	Tetris		BOOTH		BOOTH	OFF	Unrel_Restudy_L5	163	Study	No	3	Unrel_Restudy_L5	ON		3000								
A1E610OYLMKW82	Collector	1	175	2016-05-26T11:55:53-07:00	54	2	Stimuli/versionFstim.txt	Procedure/versionFproc.txt	Tetris		WALNUT		WALNUT	OFF	Unrel_Restudy_L5	181	Study	No	3	Unrel_Restudy_L5	ON		3000								
A1E610OYLMKW82	Collector	1	176	2016-05-26T11:55:58-07:00	5	2	Stimuli/versionFstim.txt	Procedure/versionFproc.txt	Tetris		FLOUR		FLOUR	OFF	Unrel_Restudy_L5	171	Study	No	3	Unrel_Restudy_L5	ON		3000								
A1E610OYLMKW82	Collector	1	177	2016-05-26T11:56:03-07:00	5	2	Stimuli/versionFstim.txt	Procedure/versionFproc.txt	Tetris		BISCUIT		BISCUIT	OFF	Unrel_Restudy_L5	177	Study	No	3	Unrel_Restudy_L5	ON		3000								
A1E610OYLMKW82	Collector	1	178	2016-05-26T11:56:08-07:00	5	2	Stimuli/versionFstim.txt	Procedure/versionFproc.txt	Tetris		LICHEN		LICHEN	OFF	Unrel_Restudy_L5	170	Study	No	3	Unrel_Restudy_L5	ON		3000								
A1E610OYLMKW82	Collector	1	179	2016-05-26T11:56:12-07:00	4	2	Stimuli/versionFstim.txt	Procedure/versionFproc.txt	Tetris		SWITCH		SWITCH	OFF	Unrel_Restudy_L5	168	Study	No	3	Unrel_Restudy_L5	ON		3000								
A1E610OYLMKW82	Collector	1	180	2016-05-26T11:56:18-07:00	6	2	Stimuli/versionFstim.txt	Procedure/versionFproc.txt	Tetris		EASEL		EASEL	OFF	Unrel_Restudy_L5	166	Study	No	3	Unrel_Restudy_L5	ON		3000								
A1E610OYLMKW82	Collector	1	181	2016-05-26T11:56:23-07:00	5	2	Stimuli/versionFstim.txt	Procedure/versionFproc.txt	Tetris		PILLOW		PILLOW	OFF	Unrel_Restudy_L5	162	Study	No	3	Unrel_Restudy_L5	ON		3000								
A1E610OYLMKW82	Collector	1	182	2016-05-26T11:56:29-07:00	6	2	Stimuli/versionFstim.txt	Procedure/versionFproc.txt	Tetris		BAR		BAR	OFF	Unrel_Restudy_L5	175	Study	No	3	Unrel_Restudy_L5	ON		3000								
A1E610OYLMKW82	Collector	1	183	2016-05-26T11:56:34-07:00	5	2	Stimuli/versionFstim.txt	Procedure/versionFproc.txt	Tetris		BROOM		BROOM	OFF	Unrel_Restudy_L5	176	Study	No	3	Unrel_Restudy_L5	ON		3000								
A1E610OYLMKW82	Collector	1	184	2016-05-26T11:56:40-07:00	6	2	Stimuli/versionFstim.txt	Procedure/versionFproc.txt	Tetris		MUSKET		MUSKET	OFF	Unrel_Restudy_L5	165	Study	No	3	Unrel_Restudy_L5	ON		3000								
A1E610OYLMKW82	Collector	1	185	2016-05-26T11:56:44-07:00	4	2	Stimuli/versionFstim.txt	Procedure/versionFproc.txt	Tetris		BRIGHT		BRIGHT	OFF	Unrel_Restudy_L5	169	Study	No	3	Unrel_Restudy_L5	ON		3000								
A1E610OYLMKW82	Collector	1	186	2016-05-26T11:56:50-07:00	6	2	Stimuli/versionFstim.txt	Procedure/versionFproc.txt	Tetris		BEARD		BEARD	OFF	Unrel_Restudy_L5	179	Study	No	3	Unrel_Restudy_L5	ON		3000								
A1E610OYLMKW82	Collector	1	187	2016-05-26T11:56:55-07:00	5	2	Stimuli/versionFstim.txt	Procedure/versionFproc.txt	Tetris		SHOE		SHOE	OFF	Unrel_Restudy_L5	167	Study	No	3	Unrel_Restudy_L5	ON		3000								
A1E610OYLMKW82	Collector	1	188	2016-05-26T11:57:00-07:00	5	2	Stimuli/versionFstim.txt	Procedure/versionFproc.txt	Tetris		SNOWMAN		SNOWMAN	OFF	Unrel_Restudy_L5	172	Study	No	3	Unrel_Restudy_L5	ON		3000								
A1E610OYLMKW82	Collector	1	189	2016-05-26T11:57:05-07:00	5	2	Stimuli/versionFstim.txt	Procedure/versionFproc.txt	Tetris		HORN		HORN	OFF	Unrel_Restudy_L5	178	Study	No	3	Unrel_Restudy_L5	ON		3000								
A1E610OYLMKW82	Collector	1	190	2016-05-26T11:57:10-07:00	5	2	Stimuli/versionFstim.txt	Procedure/versionFproc.txt	Tetris		n/a	n/a	n/a	n/a	n/a	0	Instruct	N/A	User	Restudy Instructions: You will now view this list again, but in a different order. Click the button below to begin.	OFF		1930								
A1E610OYLMKW82	Collector	1	191	2016-05-26T11:57:14-07:00	4	2	Stimuli/versionFstim.txt	Procedure/versionFproc.txt	Tetris		WALNUT		WALNUT	OFF	Unrel_Restudy_L5	201	Study	No	3	Unrel_Restudy_L5	ON		3000								
A1E610OYLMKW82	Collector	1	192	2016-05-26T11:57:20-07:00	6	2	Stimuli/versionFstim.txt	Procedure/versionFproc.txt	Tetris		BOOTH		BOOTH	OFF	Unrel_Restudy_L5	183	Study	No	3	Unrel_Restudy_L5	ON		3000								
A1E610OYLMKW82	Collector	1	193	2016-05-26T11:57:24-07:00	4	2	Stimuli/versionFstim.txt	Procedure/versionFproc.txt	Tetris		SNOWMAN		SNOWMAN	OFF	Unrel_Restudy_L5	192	Study	No	3	Unrel_Restudy_L5	ON		3000								
A1E610OYLMKW82	Collector	1	194	2016-05-26T11:57:30-07:00	6	2	Stimuli/versionFstim.txt	Procedure/versionFproc.txt	Tetris		BISCUIT		BISCUIT	OFF	Unrel_Restudy_L5	197	Study	No	3	Unrel_Restudy_L5	ON		3000								
A1E610OYLMKW82	Collector	1	195	2016-05-26T11:57:34-07:00	4	2	Stimuli/versionFstim.txt	Procedure/versionFproc.txt	Tetris		BROOM		BROOM	OFF	Unrel_Restudy_L5	196	Study	No	3	Unrel_Restudy_L5	ON		3000								
A1E610OYLMKW82	Collector	1	196	2016-05-26T11:57:40-07:00	6	2	Stimuli/versionFstim.txt	Procedure/versionFproc.txt	Tetris		BEARD		BEARD	OFF	Unrel_Restudy_L5	199	Study	No	3	Unrel_Restudy_L5	ON		3000								
A1E610OYLMKW82	Collector	1	197	2016-05-26T11:57:45-07:00	5	2	Stimuli/versionFstim.txt	Procedure/versionFproc.txt	Tetris		MUSKET		MUSKET	OFF	Unrel_Restudy_L5	185	Study	No	3	Unrel_Restudy_L5	ON		3000								
A1E610OYLMKW82	Collector	1	198	2016-05-26T11:57:50-07:00	5	2	Stimuli/versionFstim.txt	Procedure/versionFproc.txt	Tetris		LANE		LANE	OFF	Unrel_Restudy_L5	193	Study	No	3	Unrel_Restudy_L5	ON		3000								
A1E610OYLMKW82	Collector	1	199	2016-05-26T11:57:55-07:00	5	2	Stimuli/versionFstim.txt	Procedure/versionFproc.txt	Tetris		SWITCH		SWITCH	OFF	Unrel_Restudy_L5	188	Study	No	3	Unrel_Restudy_L5	ON		3000								
A1E610OYLMKW82	Collector	1	200	2016-05-26T11:58:02-07:00	7	2	Stimuli/versionFstim.txt	Procedure/versionFproc.txt	Tetris		BAR		BAR	OFF	Unrel_Restudy_L5	195	Study	No	3	Unrel_Restudy_L5	ON		3000								
A1E610OYLMKW82	Collector	1	201	2016-05-26T11:58:10-07:00	8	2	Stimuli/versionFstim.txt	Procedure/versionFproc.txt	Tetris		SHOE		SHOE	OFF	Unrel_Restudy_L5	187	Study	No	3	Unrel_Restudy_L5	ON		3000								
A1E610OYLMKW82	Collector	1	202	2016-05-26T11:58:15-07:00	5	2	Stimuli/versionFstim.txt	Procedure/versionFproc.txt	Tetris		ANCHOR		ANCHOR	OFF	Unrel_Restudy_L5	184	Study	No	3	Unrel_Restudy_L5	ON		3000								
A1E610OYLMKW82	Collector	1	203	2016-05-26T11:58:21-07:00	6	2	Stimuli/versionFstim.txt	Procedure/versionFproc.txt	Tetris		AUNT		AUNT	OFF	Unrel_Restudy_L5	194	Study	No	3	Unrel_Restudy_L5	ON		3000								
A1E610OYLMKW82	Collector	1	204	2016-05-26T11:58:25-07:00	4	2	Stimuli/versionFstim.txt	Procedure/versionFproc.txt	Tetris		FLOUR		FLOUR	OFF	Unrel_Restudy_L5	191	Study	No	3	Unrel_Restudy_L5	ON		3000								
A1E610OYLMKW82	Collector	1	205	2016-05-26T11:58:30-07:00	5	2	Stimuli/versionFstim.txt	Procedure/versionFproc.txt	Tetris		LICHEN		LICHEN	OFF	Unrel_Restudy_L5	190	Study	No	3	Unrel_Restudy_L5	ON		3000								
A1E610OYLMKW82	Collector	1	206	2016-05-26T11:58:36-07:00	6	2	Stimuli/versionFstim.txt	Procedure/versionFproc.txt	Tetris		MOP		MOP	OFF	Unrel_Restudy_L5	200	Study	No	3	Unrel_Restudy_L5	ON		3000								
A1E610OYLMKW82	Collector	1	207	2016-05-26T11:58:42-07:00	6	2	Stimuli/versionFstim.txt	Procedure/versionFproc.txt	Tetris		HORN		HORN	OFF	Unrel_Restudy_L5	198	Study	No	3	Unrel_Restudy_L5	ON		3000								
A1E610OYLMKW82	Collector	1	208	2016-05-26T11:58:48-07:00	6	2	Stimuli/versionFstim.txt	Procedure/versionFproc.txt	Tetris		PILLOW		PILLOW	OFF	Unrel_Restudy_L5	182	Study	No	3	Unrel_Restudy_L5	ON		3000								
A1E610OYLMKW82	Collector	1	209	2016-05-26T11:58:53-07:00	5	2	Stimuli/versionFstim.txt	Procedure/versionFproc.txt	Tetris		EASEL		EASEL	OFF	Unrel_Restudy_L5	186	Study	No	3	Unrel_Restudy_L5	ON		3000								
A1E610OYLMKW82	Collector	1	210	2016-05-26T11:58:59-07:00	6	2	Stimuli/versionFstim.txt	Procedure/versionFproc.txt	Tetris		BRIGHT		BRIGHT	OFF	Unrel_Restudy_L5	189	Study	No	3	Unrel_Restudy_L5	ON		3000								
A1E610OYLMKW82	Collector	1	211	2016-05-26T11:59:07-07:00	8	2	Stimuli/versionFstim.txt	Procedure/versionFproc.txt	Tetris		n/a	n/a	n/a	n/a	n/a	0	Instruct	N/A	User	Click the button below for a new list.	OFF		1470								
A1E610OYLMKW82	Collector	1	212	2016-05-26T11:59:11-07:00	4	2	Stimuli/versionFstim.txt	Procedure/versionFproc.txt	Tetris		SUEDE		SUEDE	OFF	AdHoc_Restudy_L6	209	Study	No	3	AdHoc_Restudy_L6	ON		3000								
A1E610OYLMKW82	Collector	1	213	2016-05-26T11:59:17-07:00	6	2	Stimuli/versionFstim.txt	Procedure/versionFproc.txt	Tetris		HAIR		HAIR	OFF	AdHoc_Restudy_L6	217	Study	No	3	AdHoc_Restudy_L6	ON		3000								
A1E610OYLMKW82	Collector	1	214	2016-05-26T11:59:21-07:00	4	2	Stimuli/versionFstim.txt	Procedure/versionFproc.txt	Tetris		LINT		LINT	OFF	AdHoc_Restudy_L6	208	Study	No	3	AdHoc_Restudy_L6	ON		3000								
A1E610OYLMKW82	Collector	1	215	2016-05-26T11:59:27-07:00	6	2	Stimuli/versionFstim.txt	Procedure/versionFproc.txt	Tetris		WHISPER		WHISPER	OFF	AdHoc_Restudy_L6	202	Study	No	3	AdHoc_Restudy_L6	ON		3000								
A1E610OYLMKW82	Collector	1	216	2016-05-26T11:59:32-07:00	5	2	Stimuli/versionFstim.txt	Procedure/versionFproc.txt	Tetris		SILK		SILK	OFF	AdHoc_Restudy_L6	203	Study	No	3	AdHoc_Restudy_L6	ON		3000								
A1E610OYLMKW82	Collector	1	217	2016-05-26T11:59:39-07:00	7	2	Stimuli/versionFstim.txt	Procedure/versionFproc.txt	Tetris		YARN		YARN	OFF	AdHoc_Restudy_L6	221	Study	No	3	AdHoc_Restudy_L6	ON		3000								
A1E610OYLMKW82	Collector	1	218	2016-05-26T11:59:43-07:00	4	2	Stimuli/versionFstim.txt	Procedure/versionFproc.txt	Tetris		SNOW		SNOW	OFF	AdHoc_Restudy_L6	210	Study	No	3	AdHoc_Restudy_L6	ON		3000								
A1E610OYLMKW82	Collector	1	219	2016-05-26T11:59:49-07:00	6	2	Stimuli/versionFstim.txt	Procedure/versionFproc.txt	Tetris		PLUSH		PLUSH	OFF	AdHoc_Restudy_L6	214	Study	No	3	AdHoc_Restudy_L6	ON		3000								
A1E610OYLMKW82	Collector	1	220	2016-05-26T11:59:53-07:00	4	2	Stimuli/versionFstim.txt	Procedure/versionFproc.txt	Tetris		VELVET		VELVET	OFF	AdHoc_Restudy_L6	215	Study	No	3	AdHoc_Restudy_L6	ON		3000								
A1E610OYLMKW82	Collector	1	221	2016-05-26T11:59:59-07:00	6	2	Stimuli/versionFstim.txt	Procedure/versionFproc.txt	Tetris		WHIPPING CREAM		WHIPPING CREAM	OFF	AdHoc_Restudy_L6	213	Study	No	3	AdHoc_Restudy_L6	ON		3000								
A1E610OYLMKW82	Collector	1	222	2016-05-26T12:00:03-07:00	4	2	Stimuli/versionFstim.txt	Procedure/versionFproc.txt	Tetris		KITTEN		KITTEN	OFF	AdHoc_Restudy_L6	212	Study	No	3	AdHoc_Restudy_L6	ON		3000								
A1E610OYLMKW82	Collector	1	223	2016-05-26T12:00:09-07:00	6	2	Stimuli/versionFstim.txt	Procedure/versionFproc.txt	Tetris		DOUGH		DOUGH	OFF	AdHoc_Restudy_L6	219	Study	No	3	AdHoc_Restudy_L6	ON		3000								
A1E610OYLMKW82	Collector	1	224	2016-05-26T12:00:14-07:00	5	2	Stimuli/versionFstim.txt	Procedure/versionFproc.txt	Tetris		BREEZE		BREEZE	OFF	AdHoc_Restudy_L6	218	Study	No	3	AdHoc_Restudy_L6	ON		3000								
A1E610OYLMKW82	Collector	1	225	2016-05-26T12:00:19-07:00	5	2	Stimuli/versionFstim.txt	Procedure/versionFproc.txt	Tetris		MARSHMALLOW		MARSHMALLOW	OFF	AdHoc_Restudy_L6	211	Study	No	3	AdHoc_Restudy_L6	ON		3000								
A1E610OYLMKW82	Collector	1	226	2016-05-26T12:00:25-07:00	6	2	Stimuli/versionFstim.txt	Procedure/versionFproc.txt	Tetris		SKIN		SKIN	OFF	AdHoc_Restudy_L6	204	Study	No	3	AdHoc_Restudy_L6	ON		3000								
A1E610OYLMKW82	Collector	1	227	2016-05-26T12:00:29-07:00	4	2	Stimuli/versionFstim.txt	Procedure/versionFproc.txt	Tetris		TOWEL		TOWEL	OFF	AdHoc_Restudy_L6	206	Study	No	3	AdHoc_Restudy_L6	ON		3000								
A1E610OYLMKW82	Collector	1	228	2016-05-26T12:00:35-07:00	6	2	Stimuli/versionFstim.txt	Procedure/versionFproc.txt	Tetris		PUDDING		PUDDING	OFF	AdHoc_Restudy_L6	216	Study	No	3	AdHoc_Restudy_L6	ON		3000								
A1E610OYLMKW82	Collector	1	229	2016-05-26T12:00:39-07:00	4	2	Stimuli/versionFstim.txt	Procedure/versionFproc.txt	Tetris		CASHMERE		CASHMERE	OFF	AdHoc_Restudy_L6	220	Study	No	3	AdHoc_Restudy_L6	ON		3000								
A1E610OYLMKW82	Collector	1	230	2016-05-26T12:00:46-07:00	7	2	Stimuli/versionFstim.txt	Procedure/versionFproc.txt	Tetris		SPONGE		SPONGE	OFF	AdHoc_Restudy_L6	207	Study	No	3	AdHoc_Restudy_L6	ON		3000								
A1E610OYLMKW82	Collector	1	231	2016-05-26T12:00:52-07:00	6	2	Stimuli/versionFstim.txt	Procedure/versionFproc.txt	Tetris		CLOUDS		CLOUDS	OFF	AdHoc_Restudy_L6	205	Study	No	3	AdHoc_Restudy_L6	ON		3000								
A1E610OYLMKW82	Collector	1	232	2016-05-26T12:01:36-07:00	44	2	Stimuli/versionFstim.txt	Procedure/versionFproc.txt	Tetris		n/a	n/a	n/a	n/a	n/a	0	Instruct	N/A	User	Restudy Instructions: You will now view this list again, but in a different order. Click the button below to begin.	OFF		36290								
A1E610OYLMKW82	Collector	1	233	2016-05-26T12:01:41-07:00	5	2	Stimuli/versionFstim.txt	Procedure/versionFproc.txt	Tetris		YARN		YARN	OFF	AdHoc_Restudy_L6	241	Study	No	3	AdHoc_Restudy_L6	ON		3000								
A1E610OYLMKW82	Collector	1	234	2016-05-26T12:01:46-07:00	5	2	Stimuli/versionFstim.txt	Procedure/versionFproc.txt	Tetris		PLUSH		PLUSH	OFF	AdHoc_Restudy_L6	234	Study	No	3	AdHoc_Restudy_L6	ON		3000								
A1E610OYLMKW82	Collector	1	235	2016-05-26T12:01:50-07:00	4	2	Stimuli/versionFstim.txt	Procedure/versionFproc.txt	Tetris		KITTEN		KITTEN	OFF	AdHoc_Restudy_L6	232	Study	No	3	AdHoc_Restudy_L6	ON		3000								
A1E610OYLMKW82	Collector	1	236	2016-05-26T12:01:55-07:00	5	2	Stimuli/versionFstim.txt	Procedure/versionFproc.txt	Tetris		DOUGH		DOUGH	OFF	AdHoc_Restudy_L6	239	Study	No	3	AdHoc_Restudy_L6	ON		3000								
A1E610OYLMKW82	Collector	1	237	2016-05-26T12:02:00-07:00	5	2	Stimuli/versionFstim.txt	Procedure/versionFproc.txt	Tetris		MARSHMALLOW		MARSHMALLOW	OFF	AdHoc_Restudy_L6	231	Study	No	3	AdHoc_Restudy_L6	ON		3000								
A1E610OYLMKW82	Collector	1	238	2016-05-26T12:02:06-07:00	6	2	Stimuli/versionFstim.txt	Procedure/versionFproc.txt	Tetris		VELVET		VELVET	OFF	AdHoc_Restudy_L6	235	Study	No	3	AdHoc_Restudy_L6	ON		3000								
A1E610OYLMKW82	Collector	1	239	2016-05-26T12:02:10-07:00	4	2	Stimuli/versionFstim.txt	Procedure/versionFproc.txt	Tetris		SNOW		SNOW	OFF	AdHoc_Restudy_L6	230	Study	No	3	AdHoc_Restudy_L6	ON		3000								
A1E610OYLMKW82	Collector	1	240	2016-05-26T12:02:16-07:00	6	2	Stimuli/versionFstim.txt	Procedure/versionFproc.txt	Tetris		PUDDING		PUDDING	OFF	AdHoc_Restudy_L6	236	Study	No	3	AdHoc_Restudy_L6	ON		3000								
A1E610OYLMKW82	Collector	1	241	2016-05-26T12:02:21-07:00	5	2	Stimuli/versionFstim.txt	Procedure/versionFproc.txt	Tetris		CLOUDS		CLOUDS	OFF	AdHoc_Restudy_L6	225	Study	No	3	AdHoc_Restudy_L6	ON		3000								
A1E610OYLMKW82	Collector	1	242	2016-05-26T12:02:26-07:00	5	2	Stimuli/versionFstim.txt	Procedure/versionFproc.txt	Tetris		SKIN		SKIN	OFF	AdHoc_Restudy_L6	224	Study	No	3	AdHoc_Restudy_L6	ON		3000								
A1E610OYLMKW82	Collector	1	243	2016-05-26T12:02:31-07:00	5	2	Stimuli/versionFstim.txt	Procedure/versionFproc.txt	Tetris		TOWEL		TOWEL	OFF	AdHoc_Restudy_L6	226	Study	No	3	AdHoc_Restudy_L6	ON		3000								
A1E610OYLMKW82	Collector	1	244	2016-05-26T12:02:37-07:00	6	2	Stimuli/versionFstim.txt	Procedure/versionFproc.txt	Tetris		SPONGE		SPONGE	OFF	AdHoc_Restudy_L6	227	Study	No	3	AdHoc_Restudy_L6	ON		3000								
A1E610OYLMKW82	Collector	1	245	2016-05-26T12:02:41-07:00	4	2	Stimuli/versionFstim.txt	Procedure/versionFproc.txt	Tetris		BREEZE		BREEZE	OFF	AdHoc_Restudy_L6	238	Study	No	3	AdHoc_Restudy_L6	ON		3000								
A1E610OYLMKW82	Collector	1	246	2016-05-26T12:02:47-07:00	6	2	Stimuli/versionFstim.txt	Procedure/versionFproc.txt	Tetris		CASHMERE		CASHMERE	OFF	AdHoc_Restudy_L6	240	Study	No	3	AdHoc_Restudy_L6	ON		3000								
A1E610OYLMKW82	Collector	1	247	2016-05-26T12:02:55-07:00	8	2	Stimuli/versionFstim.txt	Procedure/versionFproc.txt	Tetris		WHIPPING CREAM		WHIPPING CREAM	OFF	AdHoc_Restudy_L6	233	Study	No	3	AdHoc_Restudy_L6	ON		3000								
A1E610OYLMKW82	Collector	1	248	2016-05-26T12:02:59-07:00	4	2	Stimuli/versionFstim.txt	Procedure/versionFproc.txt	Tetris		HAIR		HAIR	OFF	AdHoc_Restudy_L6	237	Study	No	3	AdHoc_Restudy_L6	ON		3000								
A1E610OYLMKW82	Collector	1	249	2016-05-26T12:03:05-07:00	6	2	Stimuli/versionFstim.txt	Procedure/versionFproc.txt	Tetris		WHISPER		WHISPER	OFF	AdHoc_Restudy_L6	222	Study	No	3	AdHoc_Restudy_L6	ON		3000								
A1E610OYLMKW82	Collector	1	250	2016-05-26T12:03:10-07:00	5	2	Stimuli/versionFstim.txt	Procedure/versionFproc.txt	Tetris		SUEDE		SUEDE	OFF	AdHoc_Restudy_L6	229	Study	No	3	AdHoc_Restudy_L6	ON		3000								
A1E610OYLMKW82	Collector	1	251	2016-05-26T12:03:15-07:00	5	2	Stimuli/versionFstim.txt	Procedure/versionFproc.txt	Tetris		LINT		LINT	OFF	AdHoc_Restudy_L6	228	Study	No	3	AdHoc_Restudy_L6	ON		3000								
A1E610OYLMKW82	Collector	1	252	2016-05-26T12:03:20-07:00	5	2	Stimuli/versionFstim.txt	Procedure/versionFproc.txt	Tetris		SILK		SILK	OFF	AdHoc_Restudy_L6	223	Study	No	3	AdHoc_Restudy_L6	ON		3000								
A1E610OYLMKW82	Collector	1	253	2016-05-26T12:03:28-07:00	8	2	Stimuli/versionFstim.txt	Procedure/versionFproc.txt	Tetris		n/a	n/a	n/a	n/a	n/a	0	Instruct	N/A	User	Now you will complete a recognition memory test based on the last 6 lists that you have studied. A word will be displayed on the computer screen and you are to decide whether the word was studied in the last 6 lists. If the word was studied, click the "yes" button. If the word was not studied, click the "no" button. Respond as quickly as possible without compromising accuracy.	OFF		4510								
A1E610OYLMKW82	Collector	1	254	2016-05-26T12:03:35-07:00	7	2	Stimuli/versionFstim.txt	Procedure/versionFproc.txt	Tetris		n/a	n/a	n/a	n/a	n/a	0	Instruct	N/A	User	Click the button below to begin the test.	OFF		1570								
A1E610OYLMKW82	Collector	1	255	2016-05-26T12:03:38-07:00	3	2	Stimuli/versionFstim.txt	Procedure/versionFproc.txt	Tetris		GRAIN		GRAIN	OFF	NPCI_Unrel_Restudy	316	seqrec	No	User	RGN Test	ON	No	1490								
A1E610OYLMKW82	Collector	1	256	2016-05-26T12:03:41-07:00	3	2	Stimuli/versionFstim.txt	Procedure/versionFproc.txt	Tetris		WALNUT		WALNUT	OFF	LI_Unrel_Restudy	381	seqrec	No	User	RGN Test	ON	Yes	1100								
A1E610OYLMKW82	Collector	1	257	2016-05-26T12:03:44-07:00	3	2	Stimuli/versionFstim.txt	Procedure/versionFproc.txt	Tetris		CRADLE		CRADLE	OFF	LI_Cat_Restudy	352	seqrec	No	User	RGN Test	ON	Yes	770								
A1E610OYLMKW82	Collector	1	258	2016-05-26T12:03:46-07:00	2	2	Stimuli/versionFstim.txt	Procedure/versionFproc.txt	Tetris		FORK		FORK	OFF	NPLI_AdHoc_Restudy	257	seqrec	No	User	RGN Test	ON	No	1350								
A1E610OYLMKW82	Collector	1	259	2016-05-26T12:03:49-07:00	3	2	Stimuli/versionFstim.txt	Procedure/versionFproc.txt	Tetris		CHAISE		CHAISE	OFF	LI_Cat_Restudy	359	seqrec	No	User	RGN Test	ON	Yes	1680								
A1E610OYLMKW82	Collector	1	260	2016-05-26T12:03:53-07:00	4	2	Stimuli/versionFstim.txt	Procedure/versionFproc.txt	Tetris		DOWN		DOWN	OFF	CI_AdHoc_Restudy	418	seqrec	No	User	RGN Test	ON	No	1070								
A1E610OYLMKW82	Collector	1	261	2016-05-26T12:03:55-07:00	2	2	Stimuli/versionFstim.txt	Procedure/versionFproc.txt	Tetris		FLAKE		FLAKE	OFF	NPLI_Unrel_Restudy	275	seqrec	No	User	RGN Test	ON	No	1290								
A1E610OYLMKW82	Collector	1	262	2016-05-26T12:03:59-07:00	4	2	Stimuli/versionFstim.txt	Procedure/versionFproc.txt	Tetris		NOVEL		NOVEL	OFF	NPCI_AdHoc_Restudy	331	seqrec	No	User	RGN Test	ON	No	1860								
A1E610OYLMKW82	Collector	1	263	2016-05-26T12:04:01-07:00	2	2	Stimuli/versionFstim.txt	Procedure/versionFproc.txt	Tetris		BRAIN		BRAIN	OFF	LI_Cat_Restudy	338	seqrec	No	User	RGN Test	ON	Yes	690								
A1E610OYLMKW82	Collector	1	264	2016-05-26T12:04:04-07:00	3	2	Stimuli/versionFstim.txt	Procedure/versionFproc.txt	Tetris		COT		COT	OFF	LI_Cat_Restudy	358	seqrec	No	User	RGN Test	ON	Yes	1150								
A1E610OYLMKW82	Collector	1	265	2016-05-26T12:04:07-07:00	3	2	Stimuli/versionFstim.txt	Procedure/versionFproc.txt	Tetris		COFFEE TABLE		COFFEE TABLE	OFF	LI_Cat_Restudy	354	seqrec	No	User	RGN Test	ON	No	1570								
A1E610OYLMKW82	Collector	1	266	2016-05-26T12:04:09-07:00	2	2	Stimuli/versionFstim.txt	Procedure/versionFproc.txt	Tetris		TELEVISION		TELEVISION	OFF	LI_Cat_Restudy	353	seqrec	No	User	RGN Test	ON	No	1260								
A1E610OYLMKW82	Collector	1	267	2016-05-26T12:04:13-07:00	4	2	Stimuli/versionFstim.txt	Procedure/versionFproc.txt	Tetris		RANK		RANK	OFF	NPCI_Unrel_Restudy	314	seqrec	No	User	RGN Test	ON	No	1280								
A1E610OYLMKW82	Collector	1	268	2016-05-26T12:04:15-07:00	2	2	Stimuli/versionFstim.txt	Procedure/versionFproc.txt	Tetris		PASTE		PASTE	OFF	NPLI_Unrel_Restudy	267	seqrec	No	User	RGN Test	ON	Yes	1190								
A1E610OYLMKW82	Collector	1	269	2016-05-26T12:04:18-07:00	3	2	Stimuli/versionFstim.txt	Procedure/versionFproc.txt	Tetris		PLATTER		PLATTER	OFF	NPLI_AdHoc_Restudy	253	seqrec	No	User	RGN Test	ON	No	1260								
A1E610OYLMKW82	Collector	1	270	2016-05-26T12:04:23-07:00	5	2	Stimuli/versionFstim.txt	Procedure/versionFproc.txt	Tetris		JEANS		JEANS	OFF	LI_AdHoc_Restudy	344	seqrec	No	User	RGN Test	ON	No	1980								
A1E610OYLMKW82	Collector	1	271	2016-05-26T12:04:25-07:00	2	2	Stimuli/versionFstim.txt	Procedure/versionFproc.txt	Tetris		EYE SHADOW		EYE SHADOW	OFF	LI_AdHoc_Restudy	343	seqrec	No	User	RGN Test	ON	Yes	1130								
A1E610OYLMKW82	Collector	1	272	2016-05-26T12:04:29-07:00	4	2	Stimuli/versionFstim.txt	Procedure/versionFproc.txt	Tetris		OWL		OWL	OFF	NPLI_Cat_Restudy	290	seqrec	No	User	RGN Test	ON	Yes	1030								
A1E610OYLMKW82	Collector	1	273	2016-05-26T12:04:31-07:00	2	2	Stimuli/versionFstim.txt	Procedure/versionFproc.txt	Tetris		HEAD		HEAD	OFF	LI_Cat_Restudy	332	seqrec	No	User	RGN Test	ON	Yes	760								
A1E610OYLMKW82	Collector	1	274	2016-05-26T12:04:33-07:00	2	2	Stimuli/versionFstim.txt	Procedure/versionFproc.txt	Tetris		NOSE		NOSE	OFF	CI_Cat_Restudy	394	seqrec	No	User	RGN Test	ON	Yes	670								
A1E610OYLMKW82	Collector	1	275	2016-05-26T12:04:36-07:00	3	2	Stimuli/versionFstim.txt	Procedure/versionFproc.txt	Tetris		TONGUE		TONGUE	OFF	LI_Cat_Restudy	341	seqrec	No	User	RGN Test	ON	Yes	760								
A1E610OYLMKW82	Collector	1	276	2016-05-26T12:04:40-07:00	4	2	Stimuli/versionFstim.txt	Procedure/versionFproc.txt	Tetris		SHIRT		SHIRT	OFF	LI_AdHoc_Restudy	345	seqrec	No	User	RGN Test	ON	No	1710								
A1E610OYLMKW82	Collector	1	277	2016-05-26T12:04:42-07:00	2	2	Stimuli/versionFstim.txt	Procedure/versionFproc.txt	Tetris		MUSKET		MUSKET	OFF	LI_Unrel_Restudy	373	seqrec	No	User	RGN Test	ON	Yes	1190								
A1E610OYLMKW82	Collector	1	278	2016-05-26T12:04:49-07:00	7	2	Stimuli/versionFstim.txt	Procedure/versionFproc.txt	Tetris		BASEBALL  		BASEBALL  	OFF	NPCI_Cat_Restudy	303	seqrec	No	User	RGN Test	ON	No	1360								
A1E610OYLMKW82	Collector	1	279	2016-05-26T12:04:51-07:00	2	2	Stimuli/versionFstim.txt	Procedure/versionFproc.txt	Tetris		GLASS		GLASS	OFF	NPLI_AdHoc_Restudy	256	seqrec	No	User	RGN Test	ON	No	1330								
A1E610OYLMKW82	Collector	1	280	2016-05-26T12:04:55-07:00	4	2	Stimuli/versionFstim.txt	Procedure/versionFproc.txt	Tetris		WHIPPING CREAM		WHIPPING CREAM	OFF	LI_AdHoc_Restudy	387	seqrec	No	User	RGN Test	ON	Yes	1050								
A1E610OYLMKW82	Collector	1	281	2016-05-26T12:04:58-07:00	3	2	Stimuli/versionFstim.txt	Procedure/versionFproc.txt	Tetris		PEARLS		PEARLS	OFF	LI_AdHoc_Restudy	350	seqrec	No	User	RGN Test	ON	Yes	1200								
A1E610OYLMKW82	Collector	1	282	2016-05-26T12:05:00-07:00	2	2	Stimuli/versionFstim.txt	Procedure/versionFproc.txt	Tetris		CONTEST		CONTEST	OFF	CI_Unrel_Restudy	408	seqrec	No	User	RGN Test	ON	No	1370								
A1E610OYLMKW82	Collector	1	283	2016-05-26T12:05:03-07:00	3	2	Stimuli/versionFstim.txt	Procedure/versionFproc.txt	Tetris		INSTRUCTION		INSTRUCTION	OFF	CI_Unrel_Restudy	413	seqrec	No	User	RGN Test	ON	Yes	1180								
A1E610OYLMKW82	Collector	1	284	2016-05-26T12:05:06-07:00	3	2	Stimuli/versionFstim.txt	Procedure/versionFproc.txt	Tetris		MASCARA		MASCARA	OFF	CI_AdHoc_Restudy	397	seqrec	No	User	RGN Test	ON	Yes	960								
A1E610OYLMKW82	Collector	1	285	2016-05-26T12:05:08-07:00	2	2	Stimuli/versionFstim.txt	Procedure/versionFproc.txt	Tetris		MAGAZINE		MAGAZINE	OFF	NPCI_AdHoc_Restudy	327	seqrec	No	User	RGN Test	ON	Yes	940								
A1E610OYLMKW82	Collector	1	286	2016-05-26T12:05:11-07:00	3	2	Stimuli/versionFstim.txt	Procedure/versionFproc.txt	Tetris		GOLF		GOLF	OFF	NPLI_Cat_Restudy	242	seqrec	No	User	RGN Test	ON	No	1330								
A1E610OYLMKW82	Collector	1	287	2016-05-26T12:05:15-07:00	4	2	Stimuli/versionFstim.txt	Procedure/versionFproc.txt	Tetris		NECTAR		NECTAR	OFF	LI_Unrel_Restudy	369	seqrec	No	User	RGN Test	ON	Yes	970								
A1E610OYLMKW82	Collector	1	288	2016-05-26T12:05:17-07:00	2	2	Stimuli/versionFstim.txt	Procedure/versionFproc.txt	Tetris		LANE		LANE	OFF	LI_Unrel_Restudy	377	seqrec	No	User	RGN Test	ON	Yes	830								
A1E610OYLMKW82	Collector	1	289	2016-05-26T12:05:19-07:00	2	2	Stimuli/versionFstim.txt	Procedure/versionFproc.txt	Tetris		EAGLE		EAGLE	OFF	NPLI_Cat_Restudy	282	seqrec	No	User	RGN Test	ON	Yes	1010								
A1E610OYLMKW82	Collector	1	290	2016-05-26T12:05:23-07:00	4	2	Stimuli/versionFstim.txt	Procedure/versionFproc.txt	Tetris		TRICYCLE		TRICYCLE	OFF	NPLI_Unrel_Restudy	276	seqrec	No	User	RGN Test	ON	No	1240								
A1E610OYLMKW82	Collector	1	291	2016-05-26T12:05:25-07:00	2	2	Stimuli/versionFstim.txt	Procedure/versionFproc.txt	Tetris		HAIR		HAIR	OFF	LI_AdHoc_Restudy	389	seqrec	No	User	RGN Test	ON	Yes	1150								
A1E610OYLMKW82	Collector	1	292	2016-05-26T12:05:27-07:00	2	2	Stimuli/versionFstim.txt	Procedure/versionFproc.txt	Tetris		NURSE		NURSE	OFF	NPCI_Unrel_Restudy	319	seqrec	No	User	RGN Test	ON	No	1180								
A1E610OYLMKW82	Collector	1	293	2016-05-26T12:05:32-07:00	5	2	Stimuli/versionFstim.txt	Procedure/versionFproc.txt	Tetris		MICROWAVE		MICROWAVE	OFF	NPCI_AdHoc_Restudy	311	seqrec	No	User	RGN Test	ON	Yes	1190								
A1E610OYLMKW82	Collector	1	294	2016-05-26T12:05:35-07:00	3	2	Stimuli/versionFstim.txt	Procedure/versionFproc.txt	Tetris		SKILLET		SKILLET	OFF	NPLI_AdHoc_Restudy	258	seqrec	No	User	RGN Test	ON	No	1220								
A1E610OYLMKW82	Collector	1	295	2016-05-26T12:05:37-07:00	2	2	Stimuli/versionFstim.txt	Procedure/versionFproc.txt	Tetris		NEWSPAPER		NEWSPAPER	OFF	NPCI_AdHoc_Restudy	329	seqrec	No	User	RGN Test	ON	No	1050								
A1E610OYLMKW82	Collector	1	296	2016-05-26T12:05:39-07:00	2	2	Stimuli/versionFstim.txt	Procedure/versionFproc.txt	Tetris		BASKETBALL		BASKETBALL	OFF	NPCI_Cat_Restudy	304	seqrec	No	User	RGN Test	ON	No	1020								
A1E610OYLMKW82	Collector	1	297	2016-05-26T12:05:42-07:00	3	2	Stimuli/versionFstim.txt	Procedure/versionFproc.txt	Tetris		DRESSER		DRESSER	OFF	CI_Cat_Restudy	404	seqrec	No	User	RGN Test	ON	Yes	1010								
A1E610OYLMKW82	Collector	1	298	2016-05-26T12:05:44-07:00	2	2	Stimuli/versionFstim.txt	Procedure/versionFproc.txt	Tetris		COOKIE		COOKIE	OFF	NPLI_Unrel_Restudy	277	seqrec	No	User	RGN Test	ON	No	1230								
A1E610OYLMKW82	Collector	1	299	2016-05-26T12:05:47-07:00	3	2	Stimuli/versionFstim.txt	Procedure/versionFproc.txt	Tetris		LAMP		LAMP	OFF	CI_Cat_Restudy	403	seqrec	No	User	RGN Test	ON	Yes	1060								
A1E610OYLMKW82	Collector	1	300	2016-05-26T12:05:50-07:00	3	2	Stimuli/versionFstim.txt	Procedure/versionFproc.txt	Tetris		FLASK		FLASK	OFF	NPLI_Unrel_Restudy	262	seqrec	No	User	RGN Test	ON	No	710								
A1E610OYLMKW82	Collector	1	301	2016-05-26T12:05:52-07:00	2	2	Stimuli/versionFstim.txt	Procedure/versionFproc.txt	Tetris		POLO		POLO	OFF	NPLI_Cat_Restudy	249	seqrec	No	User	RGN Test	ON	Yes	1340								
A1E610OYLMKW82	Collector	1	302	2016-05-26T12:05:55-07:00	3	2	Stimuli/versionFstim.txt	Procedure/versionFproc.txt	Tetris		ENCYCLOPEDIA		ENCYCLOPEDIA	OFF	NPLI_AdHoc_Restudy	295	seqrec	No	User	RGN Test	ON	No	1270								
A1E610OYLMKW82	Collector	1	303	2016-05-26T12:05:58-07:00	3	2	Stimuli/versionFstim.txt	Procedure/versionFproc.txt	Tetris		BROOCH		BROOCH	OFF	LI_AdHoc_Restudy	351	seqrec	No	User	RGN Test	ON	Yes	780								
A1E610OYLMKW82	Collector	1	304	2016-05-26T12:06:00-07:00	2	2	Stimuli/versionFstim.txt	Procedure/versionFproc.txt	Tetris		SINK		SINK	OFF	NPCI_AdHoc_Restudy	310	seqrec	No	User	RGN Test	ON	No	1350								
A1E610OYLMKW82	Collector	1	305	2016-05-26T12:06:03-07:00	3	2	Stimuli/versionFstim.txt	Procedure/versionFproc.txt	Tetris		EYE		EYE	OFF	CI_Cat_Restudy	393	seqrec	No	User	RGN Test	ON	Yes	990								
A1E610OYLMKW82	Collector	1	306	2016-05-26T12:06:05-07:00	2	2	Stimuli/versionFstim.txt	Procedure/versionFproc.txt	Tetris		PERIODICAL		PERIODICAL	OFF	NPLI_AdHoc_Restudy	296	seqrec	No	User	RGN Test	ON	No	1020								
A1E610OYLMKW82	Collector	1	307	2016-05-26T12:06:09-07:00	4	2	Stimuli/versionFstim.txt	Procedure/versionFproc.txt	Tetris		SHOP		SHOP	OFF	NPLI_Unrel_Restudy	271	seqrec	No	User	RGN Test	ON	No	1660								
A1E610OYLMKW82	Collector	1	308	2016-05-26T12:06:12-07:00	3	2	Stimuli/versionFstim.txt	Procedure/versionFproc.txt	Tetris		FLOUR		FLOUR	OFF	LI_Unrel_Restudy	376	seqrec	No	User	RGN Test	ON	Yes	1290								
A1E610OYLMKW82	Collector	1	309	2016-05-26T12:06:15-07:00	3	2	Stimuli/versionFstim.txt	Procedure/versionFproc.txt	Tetris		PERFUME		PERFUME	OFF	CI_AdHoc_Restudy	400	seqrec	No	User	RGN Test	ON	Yes	690								
A1E610OYLMKW82	Collector	1	310	2016-05-26T12:06:21-07:00	6	2	Stimuli/versionFstim.txt	Procedure/versionFproc.txt	Tetris		PRESS		PRESS	OFF	NPLI_Unrel_Restudy	269	seqrec	No	User	RGN Test	ON	No	1290								
A1E610OYLMKW82	Collector	1	311	2016-05-26T12:06:24-07:00	3	2	Stimuli/versionFstim.txt	Procedure/versionFproc.txt	Tetris		JOURNAL		JOURNAL	OFF	NPLI_AdHoc_Restudy	293	seqrec	No	User	RGN Test	ON	Yes	880								
A1E610OYLMKW82	Collector	1	312	2016-05-26T12:06:27-07:00	3	2	Stimuli/versionFstim.txt	Procedure/versionFproc.txt	Tetris		MOUTH		MOUTH	OFF	LI_Cat_Restudy	334	seqrec	No	User	RGN Test	ON	Yes	880								
A1E610OYLMKW82	Collector	1	313	2016-05-26T12:06:31-07:00	4	2	Stimuli/versionFstim.txt	Procedure/versionFproc.txt	Tetris		CASSETTE		CASSETTE	OFF	CI_Unrel_Restudy	411	seqrec	No	User	RGN Test	ON	No	1810								
A1E610OYLMKW82	Collector	1	314	2016-05-26T12:06:34-07:00	3	2	Stimuli/versionFstim.txt	Procedure/versionFproc.txt	Tetris		FEATHERS		FEATHERS	OFF	CI_AdHoc_Restudy	421	seqrec	No	User	RGN Test	ON	No	680								
A1E610OYLMKW82	Collector	1	315	2016-05-26T12:06:36-07:00	2	2	Stimuli/versionFstim.txt	Procedure/versionFproc.txt	Tetris		SHOULDERS		SHOULDERS	OFF	LI_Cat_Restudy	340	seqrec	No	User	RGN Test	ON	Yes	1250								
A1E610OYLMKW82	Collector	1	316	2016-05-26T12:06:39-07:00	3	2	Stimuli/versionFstim.txt	Procedure/versionFproc.txt	Tetris		POTS		POTS	OFF	NPLI_AdHoc_Restudy	260	seqrec	No	User	RGN Test	ON	Yes	1340								
A1E610OYLMKW82	Collector	1	317	2016-05-26T12:06:42-07:00	3	2	Stimuli/versionFstim.txt	Procedure/versionFproc.txt	Tetris		ROBOT		ROBOT	OFF	NPCI_Unrel_Restudy	313	seqrec	No	User	RGN Test	ON	No	1010								
A1E610OYLMKW82	Collector	1	318	2016-05-26T12:06:44-07:00	2	2	Stimuli/versionFstim.txt	Procedure/versionFproc.txt	Tetris		KNOB		KNOB	OFF	LI_Unrel_Restudy	362	seqrec	No	User	RGN Test	ON	Yes	1200								
A1E610OYLMKW82	Collector	1	319	2016-05-26T12:06:47-07:00	3	2	Stimuli/versionFstim.txt	Procedure/versionFproc.txt	Tetris		UNCLE		UNCLE	OFF	NPCI_Unrel_Restudy	317	seqrec	No	User	RGN Test	ON	Yes	1140								
A1E610OYLMKW82	Collector	1	320	2016-05-26T12:06:50-07:00	3	2	Stimuli/versionFstim.txt	Procedure/versionFproc.txt	Tetris		CHEEK		CHEEK	OFF	LI_Unrel_Restudy	368	seqrec	No	User	RGN Test	ON	No	1330								
A1E610OYLMKW82	Collector	1	321	2016-05-26T12:06:53-07:00	3	2	Stimuli/versionFstim.txt	Procedure/versionFproc.txt	Tetris		BLUE JAY		BLUE JAY	OFF	NPCI_Cat_Restudy	323	seqrec	No	User	RGN Test	ON	No	1410								
A1E610OYLMKW82	Collector	1	322	2016-05-26T12:06:55-07:00	2	2	Stimuli/versionFstim.txt	Procedure/versionFproc.txt	Tetris		OTTOMAN		OTTOMAN	OFF	LI_Cat_Restudy	355	seqrec	No	User	RGN Test	ON	Yes	970								
A1E610OYLMKW82	Collector	1	323	2016-05-26T12:06:57-07:00	2	2	Stimuli/versionFstim.txt	Procedure/versionFproc.txt	Tetris		PIANO		PIANO	OFF	LI_Cat_Restudy	356	seqrec	No	User	RGN Test	ON	Yes	750								
A1E610OYLMKW82	Collector	1	324	2016-05-26T12:07:00-07:00	3	2	Stimuli/versionFstim.txt	Procedure/versionFproc.txt	Tetris		LEAFLET		LEAFLET	OFF	NPLI_AdHoc_Restudy	297	seqrec	No	User	RGN Test	ON	No	340								
A1E610OYLMKW82	Collector	1	325	2016-05-26T12:07:02-07:00	2	2	Stimuli/versionFstim.txt	Procedure/versionFproc.txt	Tetris		FOAM		FOAM	OFF	LI_Unrel_Restudy	363	seqrec	No	User	RGN Test	ON	Yes	1000								
A1E610OYLMKW82	Collector	1	326	2016-05-26T12:07:04-07:00	2	2	Stimuli/versionFstim.txt	Procedure/versionFproc.txt	Tetris		SOFA		SOFA	OFF	CI_Cat_Restudy	402	seqrec	No	User	RGN Test	ON	Yes	720								
A1E610OYLMKW82	Collector	1	327	2016-05-26T12:07:09-07:00	5	2	Stimuli/versionFstim.txt	Procedure/versionFproc.txt	Tetris		PAPER		PAPER	OFF	NPLI_AdHoc_Restudy	292	seqrec	No	User	RGN Test	ON	No	550								
A1E610OYLMKW82	Collector	1	328	2016-05-26T12:07:12-07:00	3	2	Stimuli/versionFstim.txt	Procedure/versionFproc.txt	Tetris		PAMPHLET		PAMPHLET	OFF	NPCI_AdHoc_Restudy	330	seqrec	No	User	RGN Test	ON	Yes	2190								
A1E610OYLMKW82	Collector	1	329	2016-05-26T12:07:15-07:00	3	2	Stimuli/versionFstim.txt	Procedure/versionFproc.txt	Tetris		DOVE		DOVE	OFF	NPLI_Cat_Restudy	289	seqrec	No	User	RGN Test	ON	No	1430								
A1E610OYLMKW82	Collector	1	330	2016-05-26T12:07:19-07:00	4	2	Stimuli/versionFstim.txt	Procedure/versionFproc.txt	Tetris		CLOUDS		CLOUDS	OFF	LI_AdHoc_Restudy	383	seqrec	No	User	RGN Test	ON	Yes	1380								
A1E610OYLMKW82	Collector	1	331	2016-05-26T12:07:21-07:00	2	2	Stimuli/versionFstim.txt	Procedure/versionFproc.txt	Tetris		PIT		PIT	OFF	NPLI_Unrel_Restudy	265	seqrec	No	User	RGN Test	ON	No	1010								
A1E610OYLMKW82	Collector	1	332	2016-05-26T12:07:23-07:00	2	2	Stimuli/versionFstim.txt	Procedure/versionFproc.txt	Tetris		CLOAK		CLOAK	OFF	LI_Unrel_Restudy	370	seqrec	No	User	RGN Test	ON	Yes	960								
A1E610OYLMKW82	Collector	1	333	2016-05-26T12:07:26-07:00	3	2	Stimuli/versionFstim.txt	Procedure/versionFproc.txt	Tetris		WIRE		WIRE	OFF	NPLI_Unrel_Restudy	263	seqrec	No	User	RGN Test	ON	No	680								
A1E610OYLMKW82	Collector	1	334	2016-05-26T12:07:29-07:00	3	2	Stimuli/versionFstim.txt	Procedure/versionFproc.txt	Tetris		BULLETIN		BULLETIN	OFF	NPLI_AdHoc_Restudy	299	seqrec	No	User	RGN Test	ON	Yes	1240								
A1E610OYLMKW82	Collector	1	335	2016-05-26T12:07:31-07:00	2	2	Stimuli/versionFstim.txt	Procedure/versionFproc.txt	Tetris		MOON		MOON	OFF	NPCI_Unrel_Restudy	320	seqrec	No	User	RGN Test	ON	No	1220								
A1E610OYLMKW82	Collector	1	336	2016-05-26T12:07:34-07:00	3	2	Stimuli/versionFstim.txt	Procedure/versionFproc.txt	Tetris		COTTON		COTTON	OFF	CI_AdHoc_Restudy	419	seqrec	No	User	RGN Test	ON	Yes	680								
A1E610OYLMKW82	Collector	1	337	2016-05-26T12:07:36-07:00	2	2	Stimuli/versionFstim.txt	Procedure/versionFproc.txt	Tetris		BADMINTON		BADMINTON	OFF	NPLI_Cat_Restudy	244	seqrec	No	User	RGN Test	ON	Yes	1120								
A1E610OYLMKW82	Collector	1	338	2016-05-26T12:07:40-07:00	4	2	Stimuli/versionFstim.txt	Procedure/versionFproc.txt	Tetris		FENCING		FENCING	OFF	NPLI_Cat_Restudy	247	seqrec	No	User	RGN Test	ON	No	1220								
A1E610OYLMKW82	Collector	1	339	2016-05-26T12:07:43-07:00	3	2	Stimuli/versionFstim.txt	Procedure/versionFproc.txt	Tetris		ARMS		ARMS	OFF	CI_Cat_Restudy	392	seqrec	No	User	RGN Test	ON	Yes	740								
A1E610OYLMKW82	Collector	1	340	2016-05-26T12:07:46-07:00	3	2	Stimuli/versionFstim.txt	Procedure/versionFproc.txt	Tetris		SWIMMING		SWIMMING	OFF	NPCI_Cat_Restudy	306	seqrec	No	User	RGN Test	ON	Yes	960								
A1E610OYLMKW82	Collector	1	341	2016-05-26T12:07:50-07:00	4	2	Stimuli/versionFstim.txt	Procedure/versionFproc.txt	Tetris		BUNNY		BUNNY	OFF	CI_AdHoc_Restudy	417	seqrec	No	User	RGN Test	ON	No	1620								
A1E610OYLMKW82	Collector	1	342	2016-05-26T12:07:54-07:00	4	2	Stimuli/versionFstim.txt	Procedure/versionFproc.txt	Tetris		MEASURING CUP		MEASURING CUP	OFF	NPLI_AdHoc_Restudy	255	seqrec	No	User	RGN Test	ON	Yes	1380								
A1E610OYLMKW82	Collector	1	343	2016-05-26T12:07:56-07:00	2	2	Stimuli/versionFstim.txt	Procedure/versionFproc.txt	Tetris		BAR		BAR	OFF	LI_Unrel_Restudy	378	seqrec	No	User	RGN Test	ON	Yes	940								
A1E610OYLMKW82	Collector	1	344	2016-05-26T12:07:58-07:00	2	2	Stimuli/versionFstim.txt	Procedure/versionFproc.txt	Tetris		TOASTER		TOASTER	OFF	NPCI_AdHoc_Restudy	309	seqrec	No	User	RGN Test	ON	Yes	870								
A1E610OYLMKW82	Collector	1	345	2016-05-26T12:08:01-07:00	3	2	Stimuli/versionFstim.txt	Procedure/versionFproc.txt	Tetris		BOWL		BOWL	OFF	NPLI_AdHoc_Restudy	254	seqrec	No	User	RGN Test	ON	Yes	560								
A1E610OYLMKW82	Collector	1	346	2016-05-26T12:08:03-07:00	2	2	Stimuli/versionFstim.txt	Procedure/versionFproc.txt	Tetris		PARROT		PARROT	OFF	NPLI_Cat_Restudy	285	seqrec	No	User	RGN Test	ON	No	1280								
A1E610OYLMKW82	Collector	1	347	2016-05-26T12:08:06-07:00	3	2	Stimuli/versionFstim.txt	Procedure/versionFproc.txt	Tetris		BEEHIVE		BEEHIVE	OFF	NPLI_Unrel_Restudy	278	seqrec	No	User	RGN Test	ON	No	1310								
A1E610OYLMKW82	Collector	1	348	2016-05-26T12:08:10-07:00	4	2	Stimuli/versionFstim.txt	Procedure/versionFproc.txt	Tetris		BOOK		BOOK	OFF	NPCI_AdHoc_Restudy	328	seqrec	No	User	RGN Test	ON	Yes	850								
A1E610OYLMKW82	Collector	1	349	2016-05-26T12:08:12-07:00	2	2	Stimuli/versionFstim.txt	Procedure/versionFproc.txt	Tetris		GALLERY		GALLERY	OFF	NPLI_Unrel_Restudy	279	seqrec	No	User	RGN Test	ON	No	910								
A1E610OYLMKW82	Collector	1	350	2016-05-26T12:08:15-07:00	3	2	Stimuli/versionFstim.txt	Procedure/versionFproc.txt	Tetris		SPONGE		SPONGE	OFF	LI_AdHoc_Restudy	384	seqrec	No	User	RGN Test	ON	Yes	1240								
A1E610OYLMKW82	Collector	1	351	2016-05-26T12:08:17-07:00	2	2	Stimuli/versionFstim.txt	Procedure/versionFproc.txt	Tetris		VELVET		VELVET	OFF	LI_AdHoc_Restudy	388	seqrec	No	User	RGN Test	ON	Yes	520								
A1E610OYLMKW82	Collector	1	352	2016-05-26T12:08:20-07:00	3	2	Stimuli/versionFstim.txt	Procedure/versionFproc.txt	Tetris		BLANKET		BLANKET	OFF	CI_AdHoc_Restudy	420	seqrec	No	User	RGN Test	ON	Yes	840								
A1E610OYLMKW82	Collector	1	353	2016-05-26T12:08:22-07:00	2	2	Stimuli/versionFstim.txt	Procedure/versionFproc.txt	Tetris		DRESS		DRESS	OFF	CI_AdHoc_Restudy	399	seqrec	No	User	RGN Test	ON	Yes	1020								
A1E610OYLMKW82	Collector	1	354	2016-05-26T12:08:25-07:00	3	2	Stimuli/versionFstim.txt	Procedure/versionFproc.txt	Tetris		EARRINGS		EARRINGS	OFF	CI_AdHoc_Restudy	398	seqrec	No	User	RGN Test	ON	Yes	900								
A1E610OYLMKW82	Collector	1	355	2016-05-26T12:08:27-07:00	2	2	Stimuli/versionFstim.txt	Procedure/versionFproc.txt	Tetris		LAND		LAND	OFF	LI_Unrel_Restudy	364	seqrec	No	User	RGN Test	ON	Yes	420								
A1E610OYLMKW82	Collector	1	356	2016-05-26T12:08:30-07:00	3	2	Stimuli/versionFstim.txt	Procedure/versionFproc.txt	Tetris		KIT		KIT	OFF	NPCI_Unrel_Restudy	321	seqrec	No	User	RGN Test	ON	Yes	1080								
A1E610OYLMKW82	Collector	1	357	2016-05-26T12:08:32-07:00	2	2	Stimuli/versionFstim.txt	Procedure/versionFproc.txt	Tetris		CATHEDRAL		CATHEDRAL	OFF	CI_Unrel_Restudy	410	seqrec	No	User	RGN Test	ON	No	1050								
A1E610OYLMKW82	Collector	1	358	2016-05-26T12:08:34-07:00	2	2	Stimuli/versionFstim.txt	Procedure/versionFproc.txt	Tetris		PELVIS		PELVIS	OFF	LI_Cat_Restudy	337	seqrec	No	User	RGN Test	ON	Yes	850								
A1E610OYLMKW82	Collector	1	359	2016-05-26T12:08:38-07:00	4	2	Stimuli/versionFstim.txt	Procedure/versionFproc.txt	Tetris		ESTATE		ESTATE	OFF	NPLI_Unrel_Restudy	272	seqrec	No	User	RGN Test	ON	Yes	940								
A1E610OYLMKW82	Collector	1	360	2016-05-26T12:08:40-07:00	2	2	Stimuli/versionFstim.txt	Procedure/versionFproc.txt	Tetris		SLIP		SLIP	OFF	LI_AdHoc_Restudy	347	seqrec	No	User	RGN Test	ON	Yes	1030								
A1E610OYLMKW82	Collector	1	361	2016-05-26T12:08:43-07:00	3	2	Stimuli/versionFstim.txt	Procedure/versionFproc.txt	Tetris		DOUGH		DOUGH	OFF	LI_AdHoc_Restudy	390	seqrec	No	User	RGN Test	ON	Yes	830								
A1E610OYLMKW82	Collector	1	362	2016-05-26T12:08:47-07:00	4	2	Stimuli/versionFstim.txt	Procedure/versionFproc.txt	Tetris		TENNIS		TENNIS	OFF	NPCI_Cat_Restudy	305	seqrec	No	User	RGN Test	ON	No	1250								
A1E610OYLMKW82	Collector	1	363	2016-05-26T12:08:49-07:00	2	2	Stimuli/versionFstim.txt	Procedure/versionFproc.txt	Tetris		UNION		UNION	OFF	NPCI_Unrel_Restudy	315	seqrec	No	User	RGN Test	ON	Yes	1130								
A1E610OYLMKW82	Collector	1	364	2016-05-26T12:08:54-07:00	5	2	Stimuli/versionFstim.txt	Procedure/versionFproc.txt	Tetris		SOFTBALL		SOFTBALL	OFF	NPLI_Cat_Restudy	248	seqrec	No	User	RGN Test	ON	Yes	820								
A1E610OYLMKW82	Collector	1	365	2016-05-26T12:08:57-07:00	3	2	Stimuli/versionFstim.txt	Procedure/versionFproc.txt	Tetris		BEARD		BEARD	OFF	LI_Unrel_Restudy	380	seqrec	No	User	RGN Test	ON	Yes	950								
A1E610OYLMKW82	Collector	1	366	2016-05-26T12:08:59-07:00	2	2	Stimuli/versionFstim.txt	Procedure/versionFproc.txt	Tetris		HAT		HAT	OFF	LI_AdHoc_Restudy	342	seqrec	No	User	RGN Test	ON	Yes	870								
A1E610OYLMKW82	Collector	1	367	2016-05-26T12:09:02-07:00	3	2	Stimuli/versionFstim.txt	Procedure/versionFproc.txt	Tetris		STOVE		STOVE	OFF	NPLI_AdHoc_Restudy	261	seqrec	No	User	RGN Test	ON	Yes	1020								
A1E610OYLMKW82	Collector	1	368	2016-05-26T12:09:04-07:00	2	2	Stimuli/versionFstim.txt	Procedure/versionFproc.txt	Tetris		NECKLACE		NECKLACE	OFF	CI_AdHoc_Restudy	401	seqrec	No	User	RGN Test	ON	Yes	880								
A1E610OYLMKW82	Collector	1	369	2016-05-26T12:09:07-07:00	3	2	Stimuli/versionFstim.txt	Procedure/versionFproc.txt	Tetris		WAVE		WAVE	OFF	NPCI_Unrel_Restudy	312	seqrec	No	User	RGN Test	ON	No	1310								
A1E610OYLMKW82	Collector	1	370	2016-05-26T12:09:09-07:00	2	2	Stimuli/versionFstim.txt	Procedure/versionFproc.txt	Tetris		DIAMONDS		DIAMONDS	OFF	LI_AdHoc_Restudy	346	seqrec	No	User	RGN Test	ON	Yes	610								
A1E610OYLMKW82	Collector	1	371	2016-05-26T12:09:13-07:00	4	2	Stimuli/versionFstim.txt	Procedure/versionFproc.txt	Tetris		KAYAK		KAYAK	OFF	NPLI_Unrel_Restudy	270	seqrec	No	User	RGN Test	ON	Yes	1340								
A1E610OYLMKW82	Collector	1	372	2016-05-26T12:09:15-07:00	2	2	Stimuli/versionFstim.txt	Procedure/versionFproc.txt	Tetris		HAWK		HAWK	OFF	NPCI_Cat_Restudy	325	seqrec	No	User	RGN Test	ON	Yes	940								
A1E610OYLMKW82	Collector	1	373	2016-05-26T12:09:17-07:00	2	2	Stimuli/versionFstim.txt	Procedure/versionFproc.txt	Tetris		TRACK		TRACK	OFF	NPLI_Cat_Restudy	243	seqrec	No	User	RGN Test	ON	Yes	930								
A1E610OYLMKW82	Collector	1	374	2016-05-26T12:09:20-07:00	3	2	Stimuli/versionFstim.txt	Procedure/versionFproc.txt	Tetris		WRESTLING		WRESTLING	OFF	NPLI_Cat_Restudy	245	seqrec	No	User	RGN Test	ON	No	330								
A1E610OYLMKW82	Collector	1	375	2016-05-26T12:09:24-07:00	4	2	Stimuli/versionFstim.txt	Procedure/versionFproc.txt	Tetris		WREN		WREN	OFF	NPLI_Cat_Restudy	284	seqrec	No	User	RGN Test	ON	Yes	1400								
A1E610OYLMKW82	Collector	1	376	2016-05-26T12:09:26-07:00	2	2	Stimuli/versionFstim.txt	Procedure/versionFproc.txt	Tetris		DINER		DINER	OFF	NPLI_Unrel_Restudy	268	seqrec	No	User	RGN Test	ON	Yes	730								
A1E610OYLMKW82	Collector	1	377	2016-05-26T12:09:29-07:00	3	2	Stimuli/versionFstim.txt	Procedure/versionFproc.txt	Tetris		RACING		RACING	OFF	NPLI_Cat_Restudy	251	seqrec	No	User	RGN Test	ON	Yes	220								
A1E610OYLMKW82	Collector	1	378	2016-05-26T12:09:31-07:00	2	2	Stimuli/versionFstim.txt	Procedure/versionFproc.txt	Tetris		YARN		YARN	OFF	LI_AdHoc_Restudy	391	seqrec	No	User	RGN Test	ON	Yes	830								
A1E610OYLMKW82	Collector	1	379	2016-05-26T12:09:33-07:00	2	2	Stimuli/versionFstim.txt	Procedure/versionFproc.txt	Tetris		OPERA		OPERA	OFF	NPCI_Unrel_Restudy	318	seqrec	No	User	RGN Test	ON	No	1010								
A1E610OYLMKW82	Collector	1	380	2016-05-26T12:09:35-07:00	2	2	Stimuli/versionFstim.txt	Procedure/versionFproc.txt	Tetris		END TABLE		END TABLE	OFF	LI_Cat_Restudy	357	seqrec	No	User	RGN Test	ON	Yes	910								
A1E610OYLMKW82	Collector	1	381	2016-05-26T12:09:37-07:00	2	2	Stimuli/versionFstim.txt	Procedure/versionFproc.txt	Tetris		WOODPECKER		WOODPECKER	OFF	NPLI_Cat_Restudy	287	seqrec	No	User	RGN Test	ON	Yes	10								
A1E610OYLMKW82	Collector	1	382	2016-05-26T12:09:39-07:00	2	2	Stimuli/versionFstim.txt	Procedure/versionFproc.txt	Tetris		BISCUIT		BISCUIT	OFF	LI_Unrel_Restudy	379	seqrec	No	User	RGN Test	ON	Yes	720								
A1E610OYLMKW82	Collector	1	383	2016-05-26T12:09:42-07:00	3	2	Stimuli/versionFstim.txt	Procedure/versionFproc.txt	Tetris		FALCON		FALCON	OFF	NPLI_Cat_Restudy	291	seqrec	No	User	RGN Test	ON	No	1300								
A1E610OYLMKW82	Collector	1	384	2016-05-26T12:09:44-07:00	2	2	Stimuli/versionFstim.txt	Procedure/versionFproc.txt	Tetris		SEED		SEED	OFF	NPLI_Unrel_Restudy	280	seqrec	No	User	RGN Test	ON	Yes	780								
A1E610OYLMKW82	Collector	1	385	2016-05-26T12:09:46-07:00	2	2	Stimuli/versionFstim.txt	Procedure/versionFproc.txt	Tetris		SILK		SILK	OFF	LI_AdHoc_Restudy	382	seqrec	No	User	RGN Test	ON	Yes	70								
A1E610OYLMKW82	Collector	1	386	2016-05-26T12:09:48-07:00	2	2	Stimuli/versionFstim.txt	Procedure/versionFproc.txt	Tetris		EAR		EAR	OFF	CI_Cat_Restudy	395	seqrec	No	User	RGN Test	ON	Yes	660								
A1E610OYLMKW82	Collector	1	387	2016-05-26T12:09:50-07:00	2	2	Stimuli/versionFstim.txt	Procedure/versionFproc.txt	Tetris		GOLDFISH		GOLDFISH	OFF	CI_Unrel_Restudy	415	seqrec	No	User	RGN Test	ON	No	1100								
A1E610OYLMKW82	Collector	1	388	2016-05-26T12:09:52-07:00	2	2	Stimuli/versionFstim.txt	Procedure/versionFproc.txt	Tetris		DAVENPORT		DAVENPORT	OFF	LI_Cat_Restudy	361	seqrec	No	User	RGN Test	ON	Yes	900								
A1E610OYLMKW82	Collector	1	389	2016-05-26T12:09:55-07:00	3	2	Stimuli/versionFstim.txt	Procedure/versionFproc.txt	Tetris		PAPERBACK		PAPERBACK	OFF	NPLI_AdHoc_Restudy	298	seqrec	No	User	RGN Test	ON	Yes	660								
A1E610OYLMKW82	Collector	1	390	2016-05-26T12:09:57-07:00	2	2	Stimuli/versionFstim.txt	Procedure/versionFproc.txt	Tetris		HEART		HEART	OFF	LI_Cat_Restudy	336	seqrec	No	User	RGN Test	ON	Yes	760								
A1E610OYLMKW82	Collector	1	391	2016-05-26T12:09:59-07:00	2	2	Stimuli/versionFstim.txt	Procedure/versionFproc.txt	Tetris		HUMMINGBIRD		HUMMINGBIRD	OFF	NPLI_Cat_Restudy	286	seqrec	No	User	RGN Test	ON	Yes	970								
A1E610OYLMKW82	Collector	1	392	2016-05-26T12:10:02-07:00	3	2	Stimuli/versionFstim.txt	Procedure/versionFproc.txt	Tetris		BIOGRAPHY		BIOGRAPHY	OFF	NPLI_AdHoc_Restudy	301	seqrec	No	User	RGN Test	ON	No	1180								
A1E610OYLMKW82	Collector	1	393	2016-05-26T12:10:05-07:00	3	2	Stimuli/versionFstim.txt	Procedure/versionFproc.txt	Tetris		GAUZE		GAUZE	OFF	LI_Unrel_Restudy	366	seqrec	No	User	RGN Test	ON	Yes	1240								
A1E610OYLMKW82	Collector	1	394	2016-05-26T12:10:07-07:00	2	2	Stimuli/versionFstim.txt	Procedure/versionFproc.txt	Tetris		MAKE UP		MAKE UP	OFF	LI_AdHoc_Restudy	349	seqrec	No	User	RGN Test	ON	Yes	840								
A1E610OYLMKW82	Collector	1	395	2016-05-26T12:10:09-07:00	2	2	Stimuli/versionFstim.txt	Procedure/versionFproc.txt	Tetris		DAIRY		DAIRY	OFF	LI_Unrel_Restudy	367	seqrec	No	User	RGN Test	ON	Yes	860								
A1E610OYLMKW82	Collector	1	396	2016-05-26T12:10:12-07:00	3	2	Stimuli/versionFstim.txt	Procedure/versionFproc.txt	Tetris		DICTIONARY		DICTIONARY	OFF	NPLI_AdHoc_Restudy	300	seqrec	No	User	RGN Test	ON	No	960								
A1E610OYLMKW82	Collector	1	397	2016-05-26T12:10:14-07:00	2	2	Stimuli/versionFstim.txt	Procedure/versionFproc.txt	Tetris		PARAKEET		PARAKEET	OFF	NPLI_Cat_Restudy	283	seqrec	No	User	RGN Test	ON	Yes	810								
A1E610OYLMKW82	Collector	1	398	2016-05-26T12:10:17-07:00	3	2	Stimuli/versionFstim.txt	Procedure/versionFproc.txt	Tetris		FALL		FALL	OFF	NPLI_Unrel_Restudy	281	seqrec	No	User	RGN Test	ON	No	1060								
A1E610OYLMKW82	Collector	1	399	2016-05-26T12:10:19-07:00	2	2	Stimuli/versionFstim.txt	Procedure/versionFproc.txt	Tetris		ARCHERY		ARCHERY	OFF	NPLI_Cat_Restudy	246	seqrec	No	User	RGN Test	ON	Yes	780								
A1E610OYLMKW82	Collector	1	400	2016-05-26T12:10:22-07:00	3	2	Stimuli/versionFstim.txt	Procedure/versionFproc.txt	Tetris		SHOE		SHOE	OFF	LI_Unrel_Restudy	374	seqrec	No	User	RGN Test	ON	Yes	530								
A1E610OYLMKW82	Collector	1	401	2016-05-26T12:10:24-07:00	2	2	Stimuli/versionFstim.txt	Procedure/versionFproc.txt	Tetris		DIGIT		DIGIT	OFF	CI_Unrel_Restudy	407	seqrec	No	User	RGN Test	ON	No	1260								
A1E610OYLMKW82	Collector	1	402	2016-05-26T12:10:27-07:00	3	2	Stimuli/versionFstim.txt	Procedure/versionFproc.txt	Tetris		STATION		STATION	OFF	NPLI_Unrel_Restudy	274	seqrec	No	User	RGN Test	ON	Yes	1000								
A1E610OYLMKW82	Collector	1	403	2016-05-26T12:10:29-07:00	2	2	Stimuli/versionFstim.txt	Procedure/versionFproc.txt	Tetris		LETTER		LETTER	OFF	NPLI_AdHoc_Restudy	294	seqrec	No	User	RGN Test	ON	Yes	580								
A1E610OYLMKW82	Collector	1	404	2016-05-26T12:10:32-07:00	3	2	Stimuli/versionFstim.txt	Procedure/versionFproc.txt	Tetris		CHINA CLOSET		CHINA CLOSET	OFF	LI_Cat_Restudy	360	seqrec	No	User	RGN Test	ON	Yes	810								
A1E610OYLMKW82	Collector	1	405	2016-05-26T12:10:34-07:00	2	2	Stimuli/versionFstim.txt	Procedure/versionFproc.txt	Tetris		MARSHMALLOW		MARSHMALLOW	OFF	LI_AdHoc_Restudy	386	seqrec	No	User	RGN Test	ON	Yes	740								
A1E610OYLMKW82	Collector	1	406	2016-05-26T12:10:37-07:00	3	2	Stimuli/versionFstim.txt	Procedure/versionFproc.txt	Tetris		FOOTBALL		FOOTBALL	OFF	NPCI_Cat_Restudy	302	seqrec	No	User	RGN Test	ON	No	1230								
A1E610OYLMKW82	Collector	1	407	2016-05-26T12:10:39-07:00	2	2	Stimuli/versionFstim.txt	Procedure/versionFproc.txt	Tetris		TOE		TOE	OFF	CI_Cat_Restudy	396	seqrec	No	User	RGN Test	ON	Yes	250								
A1E610OYLMKW82	Collector	1	408	2016-05-26T12:10:41-07:00	2	2	Stimuli/versionFstim.txt	Procedure/versionFproc.txt	Tetris		TUNE		TUNE	OFF	NPLI_Unrel_Restudy	266	seqrec	No	User	RGN Test	ON	Yes	840								
A1E610OYLMKW82	Collector	1	409	2016-05-26T12:10:43-07:00	2	2	Stimuli/versionFstim.txt	Procedure/versionFproc.txt	Tetris		BED		BED	OFF	CI_Cat_Restudy	406	seqrec	No	User	RGN Test	ON	Yes	700								
A1E610OYLMKW82	Collector	1	410	2016-05-26T12:10:46-07:00	3	2	Stimuli/versionFstim.txt	Procedure/versionFproc.txt	Tetris		ARROW		ARROW	OFF	NPLI_Unrel_Restudy	264	seqrec	No	User	RGN Test	ON	No	1280								
A1E610OYLMKW82	Collector	1	411	2016-05-26T12:10:50-07:00	4	2	Stimuli/versionFstim.txt	Procedure/versionFproc.txt	Tetris		ROBIN		ROBIN	OFF	NPCI_Cat_Restudy	326	seqrec	No	User	RGN Test	ON	Yes	1410								
A1E610OYLMKW82	Collector	1	412	2016-05-26T12:10:52-07:00	2	2	Stimuli/versionFstim.txt	Procedure/versionFproc.txt	Tetris		RUGBY		RUGBY	OFF	NPLI_Cat_Restudy	250	seqrec	No	User	RGN Test	ON	Yes	780								
A1E610OYLMKW82	Collector	1	413	2016-05-26T12:10:54-07:00	2	2	Stimuli/versionFstim.txt	Procedure/versionFproc.txt	Tetris		SPARROW		SPARROW	OFF	NPCI_Cat_Restudy	322	seqrec	No	User	RGN Test	ON	Yes	950								
A1E610OYLMKW82	Collector	1	414	2016-05-26T12:10:57-07:00	3	2	Stimuli/versionFstim.txt	Procedure/versionFproc.txt	Tetris		DUGOUT		DUGOUT	OFF	NPLI_Unrel_Restudy	273	seqrec	No	User	RGN Test	ON	No	1090								
A1E610OYLMKW82	Collector	1	415	2016-05-26T12:11:00-07:00	3	2	Stimuli/versionFstim.txt	Procedure/versionFproc.txt	Tetris		MIST		MIST	OFF	LI_Unrel_Restudy	371	seqrec	No	User	RGN Test	ON	Yes	1160								
A1E610OYLMKW82	Collector	1	416	2016-05-26T12:11:02-07:00	2	2	Stimuli/versionFstim.txt	Procedure/versionFproc.txt	Tetris		KNIFE		KNIFE	OFF	NPLI_AdHoc_Restudy	252	seqrec	No	User	RGN Test	ON	No	1320								
A1E610OYLMKW82	Collector	1	417	2016-05-26T12:11:07-07:00	5	2	Stimuli/versionFstim.txt	Procedure/versionFproc.txt	Tetris		OTTER		OTTER	OFF	LI_Unrel_Restudy	365	seqrec	No	User	RGN Test	ON	Yes	1160								
A1E610OYLMKW82	Collector	1	418	2016-05-26T12:11:09-07:00	2	2	Stimuli/versionFstim.txt	Procedure/versionFproc.txt	Tetris		BOOTH		BOOTH	OFF	LI_Unrel_Restudy	372	seqrec	No	User	RGN Test	ON	Yes	780								
A1E610OYLMKW82	Collector	1	419	2016-05-26T12:11:11-07:00	2	2	Stimuli/versionFstim.txt	Procedure/versionFproc.txt	Tetris		CHOCOLATE		CHOCOLATE	OFF	CI_Unrel_Restudy	409	seqrec	No	User	RGN Test	ON	Yes	670								
A1E610OYLMKW82	Collector	1	420	2016-05-26T12:11:13-07:00	2	2	Stimuli/versionFstim.txt	Procedure/versionFproc.txt	Tetris		STOOL		STOOL	OFF	CI_Cat_Restudy	405	seqrec	No	User	RGN Test	ON	Yes	170								
A1E610OYLMKW82	Collector	1	421	2016-05-26T12:11:16-07:00	3	2	Stimuli/versionFstim.txt	Procedure/versionFproc.txt	Tetris		BRIGHT		BRIGHT	OFF	LI_Unrel_Restudy	375	seqrec	No	User	RGN Test	ON	No	940								
A1E610OYLMKW82	Collector	1	422	2016-05-26T12:11:18-07:00	2	2	Stimuli/versionFstim.txt	Procedure/versionFproc.txt	Tetris		EYEBROW		EYEBROW	OFF	LI_Cat_Restudy	335	seqrec	No	User	RGN Test	ON	Yes	950								
A1E610OYLMKW82	Collector	1	423	2016-05-26T12:11:20-07:00	2	2	Stimuli/versionFstim.txt	Procedure/versionFproc.txt	Tetris		FINGER		FINGER	OFF	LI_Cat_Restudy	333	seqrec	No	User	RGN Test	ON	Yes	490								
A1E610OYLMKW82	Collector	1	424	2016-05-26T12:11:24-07:00	4	2	Stimuli/versionFstim.txt	Procedure/versionFproc.txt	Tetris		KERNEL		KERNEL	OFF	CI_Unrel_Restudy	412	seqrec	No	User	RGN Test	ON	No	1520								
A1E610OYLMKW82	Collector	1	425	2016-05-26T12:11:26-07:00	2	2	Stimuli/versionFstim.txt	Procedure/versionFproc.txt	Tetris		CANARY		CANARY	OFF	NPCI_Cat_Restudy	324	seqrec	No	User	RGN Test	ON	Yes	1220								
A1E610OYLMKW82	Collector	1	426	2016-05-26T12:11:28-07:00	2	2	Stimuli/versionFstim.txt	Procedure/versionFproc.txt	Tetris		GOWN		GOWN	OFF	LI_AdHoc_Restudy	348	seqrec	No	User	RGN Test	ON	Yes	730								
A1E610OYLMKW82	Collector	1	427	2016-05-26T12:11:31-07:00	3	2	Stimuli/versionFstim.txt	Procedure/versionFproc.txt	Tetris		OVEN		OVEN	OFF	NPCI_AdHoc_Restudy	307	seqrec	No	User	RGN Test	ON	Yes	930								
A1E610OYLMKW82	Collector	1	428	2016-05-26T12:11:35-07:00	4	2	Stimuli/versionFstim.txt	Procedure/versionFproc.txt	Tetris		FLAME		FLAME	OFF	CI_Unrel_Restudy	416	seqrec	No	User	RGN Test	ON	No	2010								
A1E610OYLMKW82	Collector	1	429	2016-05-26T12:11:37-07:00	2	2	Stimuli/versionFstim.txt	Procedure/versionFproc.txt	Tetris		REFRIGERATOR		REFRIGERATOR	OFF	NPCI_AdHoc_Restudy	308	seqrec	No	User	RGN Test	ON	Yes	740								
A1E610OYLMKW82	Collector	1	430	2016-05-26T12:11:40-07:00	3	2	Stimuli/versionFstim.txt	Procedure/versionFproc.txt	Tetris		SUEDE		SUEDE	OFF	LI_AdHoc_Restudy	385	seqrec	No	User	RGN Test	ON	Yes	730								
A1E610OYLMKW82	Collector	1	431	2016-05-26T12:11:42-07:00	2	2	Stimuli/versionFstim.txt	Procedure/versionFproc.txt	Tetris		TOOTH		TOOTH	OFF	LI_Cat_Restudy	339	seqrec	No	User	RGN Test	ON	Yes	760								
A1E610OYLMKW82	Collector	1	432	2016-05-26T12:11:44-07:00	2	2	Stimuli/versionFstim.txt	Procedure/versionFproc.txt	Tetris		MIXER		MIXER	OFF	NPLI_AdHoc_Restudy	259	seqrec	No	User	RGN Test	ON	No	1420								
A1E610OYLMKW82	Collector	1	433	2016-05-26T12:11:48-07:00	4	2	Stimuli/versionFstim.txt	Procedure/versionFproc.txt	Tetris		SWALLOW		SWALLOW	OFF	NPLI_Cat_Restudy	288	seqrec	No	User	RGN Test	ON	Yes	790								
A1E610OYLMKW82	Collector	1	434	2016-05-26T12:11:50-07:00	2	2	Stimuli/versionFstim.txt	Procedure/versionFproc.txt	Tetris		HILL		HILL	OFF	CI_Unrel_Restudy	414	seqrec	No	User	RGN Test	ON	Yes	920								
A1E610OYLMKW82	Collector	1	435	2016-05-26T12:11:52-07:00	2	2	Stimuli/versionFstim.txt	Procedure/versionFproc.txt	Tetris		n/a	n/a	n/a	n/a	n/a	0	Instruct	N/A	User	Click the button below to continue.	OFF		1510								
A1E610OYLMKW82	Collector	1	436	2016-05-26T12:12:08-07:00	16	2	Stimuli/versionFstim.txt	Procedure/versionFproc.txt	Tetris		n/a	n/a	n/a	n/a	n/a	0	Instruct	N/A	User	You again will be presented with 6 lists of words, each containing 20 words, but now your task after every list will be to try to guess words that are related to the list in some way, but are not actually presented on the list itself. After you view each list, your task will be to try to guess these non-presented words by typing them into a dialog box. You will have up to 1 minute to guess these words. There are no right or wrong answers, simply try to guess up to 5 words that were related to the list you saw that were not presented.	OFF		10870								
A1E610OYLMKW82	Collector	1	437	2016-05-26T12:12:13-07:00	5	2	Stimuli/versionFstim.txt	Procedure/versionFproc.txt	Tetris		SWEAT		SWEAT	OFF	AdHoc_G_L1	427	Study	No	3	AdHoc_G_L1	ON		3000								
A1E610OYLMKW82	Collector	1	438	2016-05-26T12:12:18-07:00	5	2	Stimuli/versionFstim.txt	Procedure/versionFproc.txt	Tetris		BEER		BEER	OFF	AdHoc_G_L1	428	Study	No	3	AdHoc_G_L1	ON		3000								
A1E610OYLMKW82	Collector	1	439	2016-05-26T12:12:23-07:00	5	2	Stimuli/versionFstim.txt	Procedure/versionFproc.txt	Tetris		TEA		TEA	OFF	AdHoc_G_L1	424	Study	No	3	AdHoc_G_L1	ON		3000								
A1E610OYLMKW82	Collector	1	440	2016-05-26T12:12:28-07:00	5	2	Stimuli/versionFstim.txt	Procedure/versionFproc.txt	Tetris		TEARS		TEARS	OFF	AdHoc_G_L1	426	Study	No	3	AdHoc_G_L1	ON		3000								
A1E610OYLMKW82	Collector	1	441	2016-05-26T12:12:32-07:00	4	2	Stimuli/versionFstim.txt	Procedure/versionFproc.txt	Tetris		OCEAN		OCEAN	OFF	AdHoc_G_L1	432	Study	No	3	AdHoc_G_L1	ON		3000								
A1E610OYLMKW82	Collector	1	442	2016-05-26T12:12:39-07:00	7	2	Stimuli/versionFstim.txt	Procedure/versionFproc.txt	Tetris		CIDER		CIDER	OFF	AdHoc_G_L1	422	Study	No	3	AdHoc_G_L1	ON		3000								
A1E610OYLMKW82	Collector	1	443	2016-05-26T12:12:44-07:00	5	2	Stimuli/versionFstim.txt	Procedure/versionFproc.txt	Tetris		MERCURY		MERCURY	OFF	AdHoc_G_L1	425	Study	No	3	AdHoc_G_L1	ON		3000								
A1E610OYLMKW82	Collector	1	444	2016-05-26T12:12:50-07:00	6	2	Stimuli/versionFstim.txt	Procedure/versionFproc.txt	Tetris		HOT CHOCOLATE		HOT CHOCOLATE	OFF	AdHoc_G_L1	431	Study	No	3	AdHoc_G_L1	ON		3000								
A1E610OYLMKW82	Collector	1	445	2016-05-26T12:12:55-07:00	5	2	Stimuli/versionFstim.txt	Procedure/versionFproc.txt	Tetris		LAKE		LAKE	OFF	AdHoc_G_L1	433	Study	No	3	AdHoc_G_L1	ON		3000								
A1E610OYLMKW82	Collector	1	446	2016-05-26T12:13:00-07:00	5	2	Stimuli/versionFstim.txt	Procedure/versionFproc.txt	Tetris		BLOOD		BLOOD	OFF	AdHoc_G_L1	438	Study	No	3	AdHoc_G_L1	ON		3000								
A1E610OYLMKW82	Collector	1	447	2016-05-26T12:13:06-07:00	6	2	Stimuli/versionFstim.txt	Procedure/versionFproc.txt	Tetris		GASOLINE		GASOLINE	OFF	AdHoc_G_L1	437	Study	No	3	AdHoc_G_L1	ON		3000								
A1E610OYLMKW82	Collector	1	448	2016-05-26T12:13:11-07:00	5	2	Stimuli/versionFstim.txt	Procedure/versionFproc.txt	Tetris		LAVA		LAVA	OFF	AdHoc_G_L1	435	Study	No	3	AdHoc_G_L1	ON		3000								
A1E610OYLMKW82	Collector	1	449	2016-05-26T12:13:17-07:00	6	2	Stimuli/versionFstim.txt	Procedure/versionFproc.txt	Tetris		VINEGAR		VINEGAR	OFF	AdHoc_G_L1	439	Study	No	3	AdHoc_G_L1	ON		3000								
A1E610OYLMKW82	Collector	1	450	2016-05-26T12:13:22-07:00	5	2	Stimuli/versionFstim.txt	Procedure/versionFproc.txt	Tetris		WINE		WINE	OFF	AdHoc_G_L1	429	Study	No	3	AdHoc_G_L1	ON		3000								
A1E610OYLMKW82	Collector	1	451	2016-05-26T12:13:29-07:00	7	2	Stimuli/versionFstim.txt	Procedure/versionFproc.txt	Tetris		RIVER		RIVER	OFF	AdHoc_G_L1	434	Study	No	3	AdHoc_G_L1	ON		3000								
A1E610OYLMKW82	Collector	1	452	2016-05-26T12:13:35-07:00	6	2	Stimuli/versionFstim.txt	Procedure/versionFproc.txt	Tetris		CREAM		CREAM	OFF	AdHoc_G_L1	441	Study	No	3	AdHoc_G_L1	ON		3000								
A1E610OYLMKW82	Collector	1	453	2016-05-26T12:13:40-07:00	5	2	Stimuli/versionFstim.txt	Procedure/versionFproc.txt	Tetris		SOUP		SOUP	OFF	AdHoc_G_L1	436	Study	No	3	AdHoc_G_L1	ON		3000								
A1E610OYLMKW82	Collector	1	454	2016-05-26T12:13:47-07:00	7	2	Stimuli/versionFstim.txt	Procedure/versionFproc.txt	Tetris		ALCOHOL		ALCOHOL	OFF	AdHoc_G_L1	430	Study	No	3	AdHoc_G_L1	ON		3000								
A1E610OYLMKW82	Collector	1	455	2016-05-26T12:13:53-07:00	6	2	Stimuli/versionFstim.txt	Procedure/versionFproc.txt	Tetris		SYRUP		SYRUP	OFF	AdHoc_G_L1	440	Study	No	3	AdHoc_G_L1	ON		3000								
A1E610OYLMKW82	Collector	1	456	2016-05-26T12:13:57-07:00	4	2	Stimuli/versionFstim.txt	Procedure/versionFproc.txt	Tetris		SODA		SODA	OFF	AdHoc_G_L1	423	Study	No	3	AdHoc_G_L1	ON		3000								
A1E610OYLMKW82	Collector	1	457	2016-05-26T12:14:03-07:00	6	2	Stimuli/versionFstim.txt	Procedure/versionFproc.txt	Tetris		n/a	n/a	n/a	n/a	n/a	0	Instruct	N/A	User	Guess Instructions: 5 words related to the list you just saw were not presented. Try to guess these words by typing them into the dialog box on the next screen. You must guess at least one.	OFF		3230								
A1E610OYLMKW82	Collector	1	458	2016-05-26T12:14:45-07:00	42	2	Stimuli/versionFstim.txt	Procedure/versionFproc.txt	Tetris		n/a	n/a	n/a	n/a	n/a	0	freerecall	N/A	User	Guess Below. You must make at least one guess. Click submit when you are finished.	OFF	oil <br />  <br /> rain <br />  <br /> beer <br />  <br /> milk <br />  <br /> hydrogen peroxide	34230	2190	32120						
A1E610OYLMKW82	Collector	1	459	2016-05-26T12:14:55-07:00	10	2	Stimuli/versionFstim.txt	Procedure/versionFproc.txt	Tetris		n/a	n/a	n/a	n/a	n/a	0	Instruct	N/A	User	Click the button below for the next list.	OFF		1730								
A1E610OYLMKW82	Collector	1	460	2016-05-26T12:15:00-07:00	5	2	Stimuli/versionFstim.txt	Procedure/versionFproc.txt	Tetris		RADISH		RADISH	OFF	Cat_G_L2	454	Study	No	3	Cat_G_L2	ON		3000								
A1E610OYLMKW82	Collector	1	461	2016-05-26T12:15:04-07:00	4	2	Stimuli/versionFstim.txt	Procedure/versionFproc.txt	Tetris		CABBAGE		CABBAGE	OFF	Cat_G_L2	447	Study	No	3	Cat_G_L2	ON		3000								
A1E610OYLMKW82	Collector	1	462	2016-05-26T12:15:10-07:00	6	2	Stimuli/versionFstim.txt	Procedure/versionFproc.txt	Tetris		CELERY		CELERY	OFF	Cat_G_L2	446	Study	No	3	Cat_G_L2	ON		3000								
A1E610OYLMKW82	Collector	1	463	2016-05-26T12:15:15-07:00	5	2	Stimuli/versionFstim.txt	Procedure/versionFproc.txt	Tetris		LIMA BEANS		LIMA BEANS	OFF	Cat_G_L2	451	Study	No	3	Cat_G_L2	ON		3000								
A1E610OYLMKW82	Collector	1	464	2016-05-26T12:15:20-07:00	5	2	Stimuli/versionFstim.txt	Procedure/versionFproc.txt	Tetris		ASPARAGUS		ASPARAGUS	OFF	Cat_G_L2	445	Study	No	3	Cat_G_L2	ON		3000								
A1E610OYLMKW82	Collector	1	465	2016-05-26T12:15:26-07:00	6	2	Stimuli/versionFstim.txt	Procedure/versionFproc.txt	Tetris		ONION		ONION	OFF	Cat_G_L2	453	Study	No	3	Cat_G_L2	ON		3000								
A1E610OYLMKW82	Collector	1	466	2016-05-26T12:15:32-07:00	6	2	Stimuli/versionFstim.txt	Procedure/versionFproc.txt	Tetris		TURNIP		TURNIP	OFF	Cat_G_L2	455	Study	No	3	Cat_G_L2	ON		3000								
A1E610OYLMKW82	Collector	1	467	2016-05-26T12:15:37-07:00	5	2	Stimuli/versionFstim.txt	Procedure/versionFproc.txt	Tetris		STRING BEANS		STRING BEANS	OFF	Cat_G_L2	448	Study	No	3	Cat_G_L2	ON		3000								
A1E610OYLMKW82	Collector	1	468	2016-05-26T12:15:42-07:00	5	2	Stimuli/versionFstim.txt	Procedure/versionFproc.txt	Tetris		SQUASH		SQUASH	OFF	Cat_G_L2	452	Study	No	3	Cat_G_L2	ON		3000								
A1E610OYLMKW82	Collector	1	469	2016-05-26T12:15:48-07:00	6	2	Stimuli/versionFstim.txt	Procedure/versionFproc.txt	Tetris		CORN		CORN	OFF	Cat_G_L2	442	Study	No	3	Cat_G_L2	ON		3000								
A1E610OYLMKW82	Collector	1	470	2016-05-26T12:15:54-07:00	6	2	Stimuli/versionFstim.txt	Procedure/versionFproc.txt	Tetris		CAULIFLOWER		CAULIFLOWER	OFF	Cat_G_L2	449	Study	No	3	Cat_G_L2	ON		3000								
A1E610OYLMKW82	Collector	1	471	2016-05-26T12:15:58-07:00	4	2	Stimuli/versionFstim.txt	Procedure/versionFproc.txt	Tetris		OKRA		OKRA	OFF	Cat_G_L2	460	Study	No	3	Cat_G_L2	ON		3000								
A1E610OYLMKW82	Collector	1	472	2016-05-26T12:16:04-07:00	6	2	Stimuli/versionFstim.txt	Procedure/versionFproc.txt	Tetris		PUMPKIN		PUMPKIN	OFF	Cat_G_L2	459	Study	No	3	Cat_G_L2	ON		3000								
A1E610OYLMKW82	Collector	1	473	2016-05-26T12:16:09-07:00	5	2	Stimuli/versionFstim.txt	Procedure/versionFproc.txt	Tetris		BEETS		BEETS	OFF	Cat_G_L2	450	Study	No	3	Cat_G_L2	ON		3000								
A1E610OYLMKW82	Collector	1	474	2016-05-26T12:16:15-07:00	6	2	Stimuli/versionFstim.txt	Procedure/versionFproc.txt	Tetris		LETTUCE		LETTUCE	OFF	Cat_G_L2	444	Study	No	3	Cat_G_L2	ON		3000								
A1E610OYLMKW82	Collector	1	475	2016-05-26T12:16:20-07:00	5	2	Stimuli/versionFstim.txt	Procedure/versionFproc.txt	Tetris		PEPPERS		PEPPERS	OFF	Cat_G_L2	457	Study	No	3	Cat_G_L2	ON		3000								
A1E610OYLMKW82	Collector	1	476	2016-05-26T12:16:26-07:00	6	2	Stimuli/versionFstim.txt	Procedure/versionFproc.txt	Tetris		ZUCCHINI		ZUCCHINI	OFF	Cat_G_L2	458	Study	No	3	Cat_G_L2	ON		3000								
A1E610OYLMKW82	Collector	1	477	2016-05-26T12:16:31-07:00	5	2	Stimuli/versionFstim.txt	Procedure/versionFproc.txt	Tetris		POTATO		POTATO	OFF	Cat_G_L2	443	Study	No	3	Cat_G_L2	ON		3000								
A1E610OYLMKW82	Collector	1	478	2016-05-26T12:16:37-07:00	6	2	Stimuli/versionFstim.txt	Procedure/versionFproc.txt	Tetris		KALE		KALE	OFF	Cat_G_L2	456	Study	No	3	Cat_G_L2	ON		3000								
A1E610OYLMKW82	Collector	1	479	2016-05-26T12:16:42-07:00	5	2	Stimuli/versionFstim.txt	Procedure/versionFproc.txt	Tetris		EGGPLANT		EGGPLANT	OFF	Cat_G_L2	461	Study	No	3	Cat_G_L2	ON		3000								
