"X.Username","X.ExperimentName","X.Session","X.Trial","X.Date","X.TimeDif","X.Condition.Number","X.Stimuli.File","X.Order.File","X.Condition.Description","X.Condition.Notes","Stimuli.Target","Stimuli.Cue","Stimuli.Answer","Stimuli.Shuffle","Stimuli.Stimuli.Notes","Procedure.Item","Procedure.Trial.Type","Procedure.Post.Trial","Procedure.Timing","Procedure.Procedure.Notes","Procedure.Shuffle","Response.Response1","Response.RT","Response.RTkey","Response.RTlast","Response.strictAcc","Response.lenientAcc","Response.Accuracy","Response.JOL","Response.postRT","Response.postRTkey"
"A2HYN1BAX7XB4Y","Collector",1,1,"2016-05-25T14:54:32-07:00","-",2,"Stimuli/versionFstim.txt","Procedure/versionFproc.txt","Tetris",NA,"n/a","n/a","n/a","n/a","n/a",0,"Instruct","N/A","User","Click the button below for the first list.","Off","",2620,NA,NA,NA,NA,NA,NA,NA,NA
"A2HYN1BAX7XB4Y","Collector",1,2,"2016-05-25T14:54:37-07:00","5",2,"Stimuli/versionFstim.txt","Procedure/versionFproc.txt","Tetris",NA,"LIVER","","LIVER","OFF","Cat_Restudy_L1",14,"Study","No","3","Cat_Restudy_L1","ON","",3000,NA,NA,NA,NA,NA,NA,NA,NA
"A2HYN1BAX7XB4Y","Collector",1,3,"2016-05-25T14:54:41-07:00","4",2,"Stimuli/versionFstim.txt","Procedure/versionFproc.txt","Tetris",NA,"NECK","","NECK","OFF","Cat_Restudy_L1",10,"Study","No","3","Cat_Restudy_L1","ON","",3000,NA,NA,NA,NA,NA,NA,NA,NA
"A2HYN1BAX7XB4Y","Collector",1,4,"2016-05-25T14:54:47-07:00","6",2,"Stimuli/versionFstim.txt","Procedure/versionFproc.txt","Tetris",NA,"STOMACH","","STOMACH","OFF","Cat_Restudy_L1",8,"Study","No","3","Cat_Restudy_L1","ON","",3000,NA,NA,NA,NA,NA,NA,NA,NA
"A2HYN1BAX7XB4Y","Collector",1,5,"2016-05-25T14:54:51-07:00","4",2,"Stimuli/versionFstim.txt","Procedure/versionFproc.txt","Tetris",NA,"FACE","","FACE","OFF","Cat_Restudy_L1",20,"Study","No","3","Cat_Restudy_L1","ON","",3000,NA,NA,NA,NA,NA,NA,NA,NA
"A2HYN1BAX7XB4Y","Collector",1,6,"2016-05-25T14:54:56-07:00","5",2,"Stimuli/versionFstim.txt","Procedure/versionFproc.txt","Tetris",NA,"LEGS","","LEGS","OFF","Cat_Restudy_L1",2,"Study","No","3","Cat_Restudy_L1","ON","",3000,NA,NA,NA,NA,NA,NA,NA,NA
"A2HYN1BAX7XB4Y","Collector",1,7,"2016-05-25T14:55:00-07:00","4",2,"Stimuli/versionFstim.txt","Procedure/versionFproc.txt","Tetris",NA,"PELVIS","","PELVIS","OFF","Cat_Restudy_L1",13,"Study","No","3","Cat_Restudy_L1","ON","",3000,NA,NA,NA,NA,NA,NA,NA,NA
"A2HYN1BAX7XB4Y","Collector",1,8,"2016-05-25T14:55:04-07:00","4",2,"Stimuli/versionFstim.txt","Procedure/versionFproc.txt","Tetris",NA,"HEAD","","HEAD","OFF","Cat_Restudy_L1",3,"Study","No","3","Cat_Restudy_L1","ON","",3000,NA,NA,NA,NA,NA,NA,NA,NA
"A2HYN1BAX7XB4Y","Collector",1,9,"2016-05-25T14:55:12-07:00","8",2,"Stimuli/versionFstim.txt","Procedure/versionFproc.txt","Tetris",NA,"HEART","","HEART","OFF","Cat_Restudy_L1",11,"Study","No","3","Cat_Restudy_L1","ON","",3000,NA,NA,NA,NA,NA,NA,NA,NA
"A2HYN1BAX7XB4Y","Collector",1,10,"2016-05-25T14:55:17-07:00","5",2,"Stimuli/versionFstim.txt","Procedure/versionFproc.txt","Tetris",NA,"TOOTH","","TOOTH","OFF","Cat_Restudy_L1",17,"Study","No","3","Cat_Restudy_L1","ON","",3000,NA,NA,NA,NA,NA,NA,NA,NA
"A2HYN1BAX7XB4Y","Collector",1,11,"2016-05-25T14:55:21-07:00","4",2,"Stimuli/versionFstim.txt","Procedure/versionFproc.txt","Tetris",NA,"ELBOW","","ELBOW","OFF","Cat_Restudy_L1",18,"Study","No","3","Cat_Restudy_L1","ON","",3000,NA,NA,NA,NA,NA,NA,NA,NA
"A2HYN1BAX7XB4Y","Collector",1,12,"2016-05-25T14:55:25-07:00","4",2,"Stimuli/versionFstim.txt","Procedure/versionFproc.txt","Tetris",NA,"BRAIN","","BRAIN","OFF","Cat_Restudy_L1",15,"Study","No","3","Cat_Restudy_L1","ON","",3000,NA,NA,NA,NA,NA,NA,NA,NA
"A2HYN1BAX7XB4Y","Collector",1,13,"2016-05-25T14:55:29-07:00","4",2,"Stimuli/versionFstim.txt","Procedure/versionFproc.txt","Tetris",NA,"LUNGS","","LUNGS","OFF","Cat_Restudy_L1",16,"Study","No","3","Cat_Restudy_L1","ON","",3000,NA,NA,NA,NA,NA,NA,NA,NA
"A2HYN1BAX7XB4Y","Collector",1,14,"2016-05-25T14:55:34-07:00","5",2,"Stimuli/versionFstim.txt","Procedure/versionFproc.txt","Tetris",NA,"TONGUE","","TONGUE","OFF","Cat_Restudy_L1",21,"Study","No","3","Cat_Restudy_L1","ON","",3000,NA,NA,NA,NA,NA,NA,NA,NA
"A2HYN1BAX7XB4Y","Collector",1,15,"2016-05-25T14:55:38-07:00","4",2,"Stimuli/versionFstim.txt","Procedure/versionFproc.txt","Tetris",NA,"SHOULDERS","","SHOULDERS","OFF","Cat_Restudy_L1",19,"Study","No","3","Cat_Restudy_L1","ON","",3000,NA,NA,NA,NA,NA,NA,NA,NA
"A2HYN1BAX7XB4Y","Collector",1,16,"2016-05-25T14:55:42-07:00","4",2,"Stimuli/versionFstim.txt","Procedure/versionFproc.txt","Tetris",NA,"FINGER","","FINGER","OFF","Cat_Restudy_L1",5,"Study","No","3","Cat_Restudy_L1","ON","",3000,NA,NA,NA,NA,NA,NA,NA,NA
"A2HYN1BAX7XB4Y","Collector",1,17,"2016-05-25T14:55:48-07:00","6",2,"Stimuli/versionFstim.txt","Procedure/versionFproc.txt","Tetris",NA,"FOOT ","","FOOT ","OFF","Cat_Restudy_L1",4,"Study","No","3","Cat_Restudy_L1","ON","",3000,NA,NA,NA,NA,NA,NA,NA,NA
"A2HYN1BAX7XB4Y","Collector",1,18,"2016-05-25T14:55:52-07:00","4",2,"Stimuli/versionFstim.txt","Procedure/versionFproc.txt","Tetris",NA,"EYEBROW","","EYEBROW","OFF","Cat_Restudy_L1",9,"Study","No","3","Cat_Restudy_L1","ON","",3000,NA,NA,NA,NA,NA,NA,NA,NA
"A2HYN1BAX7XB4Y","Collector",1,19,"2016-05-25T14:55:56-07:00","4",2,"Stimuli/versionFstim.txt","Procedure/versionFproc.txt","Tetris",NA,"HAND","","HAND","OFF","Cat_Restudy_L1",6,"Study","No","3","Cat_Restudy_L1","ON","",3000,NA,NA,NA,NA,NA,NA,NA,NA
"A2HYN1BAX7XB4Y","Collector",1,20,"2016-05-25T14:56:00-07:00","4",2,"Stimuli/versionFstim.txt","Procedure/versionFproc.txt","Tetris",NA,"MOUTH","","MOUTH","OFF","Cat_Restudy_L1",7,"Study","No","3","Cat_Restudy_L1","ON","",3000,NA,NA,NA,NA,NA,NA,NA,NA
"A2HYN1BAX7XB4Y","Collector",1,21,"2016-05-25T14:56:05-07:00","5",2,"Stimuli/versionFstim.txt","Procedure/versionFproc.txt","Tetris",NA,"KNEE","","KNEE","OFF","Cat_Restudy_L1",12,"Study","No","3","Cat_Restudy_L1","ON","",3000,NA,NA,NA,NA,NA,NA,NA,NA
"A2HYN1BAX7XB4Y","Collector",1,22,"2016-05-25T14:56:10-07:00","5",2,"Stimuli/versionFstim.txt","Procedure/versionFproc.txt","Tetris",NA,"n/a","n/a","n/a","n/a","n/a",0,"Instruct","N/A","User","Restudy Instructions: You will now view this list again, but in a different order. Click the button below to begin.","OFF","",4570,NA,NA,NA,NA,NA,NA,NA,NA
"A2HYN1BAX7XB4Y","Collector",1,23,"2016-05-25T14:56:15-07:00","5",2,"Stimuli/versionFstim.txt","Procedure/versionFproc.txt","Tetris",NA,"PELVIS","","PELVIS","OFF","Cat_Restudy_L1",33,"Study","No","3","Cat_Restudy_L1","ON","",3000,NA,NA,NA,NA,NA,NA,NA,NA
"A2HYN1BAX7XB4Y","Collector",1,24,"2016-05-25T14:56:19-07:00","4",2,"Stimuli/versionFstim.txt","Procedure/versionFproc.txt","Tetris",NA,"LIVER","","LIVER","OFF","Cat_Restudy_L1",34,"Study","No","3","Cat_Restudy_L1","ON","",3000,NA,NA,NA,NA,NA,NA,NA,NA
"A2HYN1BAX7XB4Y","Collector",1,25,"2016-05-25T14:56:23-07:00","4",2,"Stimuli/versionFstim.txt","Procedure/versionFproc.txt","Tetris",NA,"BRAIN","","BRAIN","OFF","Cat_Restudy_L1",35,"Study","No","3","Cat_Restudy_L1","ON","",3000,NA,NA,NA,NA,NA,NA,NA,NA
"A2HYN1BAX7XB4Y","Collector",1,26,"2016-05-25T14:56:27-07:00","4",2,"Stimuli/versionFstim.txt","Procedure/versionFproc.txt","Tetris",NA,"LEGS","","LEGS","OFF","Cat_Restudy_L1",22,"Study","No","3","Cat_Restudy_L1","ON","",3000,NA,NA,NA,NA,NA,NA,NA,NA
"A2HYN1BAX7XB4Y","Collector",1,27,"2016-05-25T14:56:32-07:00","5",2,"Stimuli/versionFstim.txt","Procedure/versionFproc.txt","Tetris",NA,"NECK","","NECK","OFF","Cat_Restudy_L1",30,"Study","No","3","Cat_Restudy_L1","ON","",3000,NA,NA,NA,NA,NA,NA,NA,NA
"A2HYN1BAX7XB4Y","Collector",1,28,"2016-05-25T14:56:36-07:00","4",2,"Stimuli/versionFstim.txt","Procedure/versionFproc.txt","Tetris",NA,"FINGER","","FINGER","OFF","Cat_Restudy_L1",25,"Study","No","3","Cat_Restudy_L1","ON","",3000,NA,NA,NA,NA,NA,NA,NA,NA
"A2HYN1BAX7XB4Y","Collector",1,29,"2016-05-25T14:56:40-07:00","4",2,"Stimuli/versionFstim.txt","Procedure/versionFproc.txt","Tetris",NA,"FACE","","FACE","OFF","Cat_Restudy_L1",40,"Study","No","3","Cat_Restudy_L1","ON","",3000,NA,NA,NA,NA,NA,NA,NA,NA
"A2HYN1BAX7XB4Y","Collector",1,30,"2016-05-25T14:56:45-07:00","5",2,"Stimuli/versionFstim.txt","Procedure/versionFproc.txt","Tetris",NA,"HEART","","HEART","OFF","Cat_Restudy_L1",31,"Study","No","3","Cat_Restudy_L1","ON","",3000,NA,NA,NA,NA,NA,NA,NA,NA
"A2HYN1BAX7XB4Y","Collector",1,31,"2016-05-25T14:56:50-07:00","5",2,"Stimuli/versionFstim.txt","Procedure/versionFproc.txt","Tetris",NA,"ELBOW","","ELBOW","OFF","Cat_Restudy_L1",38,"Study","No","3","Cat_Restudy_L1","ON","",3000,NA,NA,NA,NA,NA,NA,NA,NA
"A2HYN1BAX7XB4Y","Collector",1,32,"2016-05-25T14:56:54-07:00","4",2,"Stimuli/versionFstim.txt","Procedure/versionFproc.txt","Tetris",NA,"EYEBROW","","EYEBROW","OFF","Cat_Restudy_L1",29,"Study","No","3","Cat_Restudy_L1","ON","",3000,NA,NA,NA,NA,NA,NA,NA,NA
"A2HYN1BAX7XB4Y","Collector",1,33,"2016-05-25T14:56:58-07:00","4",2,"Stimuli/versionFstim.txt","Procedure/versionFproc.txt","Tetris",NA,"TONGUE","","TONGUE","OFF","Cat_Restudy_L1",41,"Study","No","3","Cat_Restudy_L1","ON","",3000,NA,NA,NA,NA,NA,NA,NA,NA
"A2HYN1BAX7XB4Y","Collector",1,34,"2016-05-25T14:57:03-07:00","5",2,"Stimuli/versionFstim.txt","Procedure/versionFproc.txt","Tetris",NA,"LUNGS","","LUNGS","OFF","Cat_Restudy_L1",36,"Study","No","3","Cat_Restudy_L1","ON","",3000,NA,NA,NA,NA,NA,NA,NA,NA
"A2HYN1BAX7XB4Y","Collector",1,35,"2016-05-25T14:57:07-07:00","4",2,"Stimuli/versionFstim.txt","Procedure/versionFproc.txt","Tetris",NA,"HEAD","","HEAD","OFF","Cat_Restudy_L1",23,"Study","No","3","Cat_Restudy_L1","ON","",3000,NA,NA,NA,NA,NA,NA,NA,NA
"A2HYN1BAX7XB4Y","Collector",1,36,"2016-05-25T14:57:12-07:00","5",2,"Stimuli/versionFstim.txt","Procedure/versionFproc.txt","Tetris",NA,"TOOTH","","TOOTH","OFF","Cat_Restudy_L1",37,"Study","No","3","Cat_Restudy_L1","ON","",3000,NA,NA,NA,NA,NA,NA,NA,NA
"A2HYN1BAX7XB4Y","Collector",1,37,"2016-05-25T14:57:16-07:00","4",2,"Stimuli/versionFstim.txt","Procedure/versionFproc.txt","Tetris",NA,"MOUTH","","MOUTH","OFF","Cat_Restudy_L1",27,"Study","No","3","Cat_Restudy_L1","ON","",3000,NA,NA,NA,NA,NA,NA,NA,NA
"A2HYN1BAX7XB4Y","Collector",1,38,"2016-05-25T14:57:21-07:00","5",2,"Stimuli/versionFstim.txt","Procedure/versionFproc.txt","Tetris",NA,"KNEE","","KNEE","OFF","Cat_Restudy_L1",32,"Study","No","3","Cat_Restudy_L1","ON","",3000,NA,NA,NA,NA,NA,NA,NA,NA
"A2HYN1BAX7XB4Y","Collector",1,39,"2016-05-25T14:57:25-07:00","4",2,"Stimuli/versionFstim.txt","Procedure/versionFproc.txt","Tetris",NA,"SHOULDERS","","SHOULDERS","OFF","Cat_Restudy_L1",39,"Study","No","3","Cat_Restudy_L1","ON","",3000,NA,NA,NA,NA,NA,NA,NA,NA
"A2HYN1BAX7XB4Y","Collector",1,40,"2016-05-25T14:57:29-07:00","4",2,"Stimuli/versionFstim.txt","Procedure/versionFproc.txt","Tetris",NA,"FOOT ","","FOOT ","OFF","Cat_Restudy_L1",24,"Study","No","3","Cat_Restudy_L1","ON","",3000,NA,NA,NA,NA,NA,NA,NA,NA
"A2HYN1BAX7XB4Y","Collector",1,41,"2016-05-25T14:57:33-07:00","4",2,"Stimuli/versionFstim.txt","Procedure/versionFproc.txt","Tetris",NA,"STOMACH","","STOMACH","OFF","Cat_Restudy_L1",28,"Study","No","3","Cat_Restudy_L1","ON","",3000,NA,NA,NA,NA,NA,NA,NA,NA
"A2HYN1BAX7XB4Y","Collector",1,42,"2016-05-25T14:57:38-07:00","5",2,"Stimuli/versionFstim.txt","Procedure/versionFproc.txt","Tetris",NA,"HAND","","HAND","OFF","Cat_Restudy_L1",26,"Study","No","3","Cat_Restudy_L1","ON","",3000,NA,NA,NA,NA,NA,NA,NA,NA
"A2HYN1BAX7XB4Y","Collector",1,43,"2016-05-25T14:57:43-07:00","5",2,"Stimuli/versionFstim.txt","Procedure/versionFproc.txt","Tetris",NA,"n/a","n/a","n/a","n/a","n/a",0,"Instruct","N/A","User","Click the button below for a new list.","OFF","",3500,NA,NA,NA,NA,NA,NA,NA,NA
"A2HYN1BAX7XB4Y","Collector",1,44,"2016-05-25T14:57:52-07:00","9",2,"Stimuli/versionFstim.txt","Procedure/versionFproc.txt","Tetris",NA,"PEARLS","","PEARLS","OFF","AdHoc_Restudy_L2",59,"Study","No","3","AdHoc_Restudy_L2","ON","",3000,NA,NA,NA,NA,NA,NA,NA,NA
"A2HYN1BAX7XB4Y","Collector",1,45,"2016-05-25T14:58:02-07:00","10",2,"Stimuli/versionFstim.txt","Procedure/versionFproc.txt","Tetris",NA,"PANTYHOSE","","PANTYHOSE","OFF","AdHoc_Restudy_L2",52,"Study","No","3","AdHoc_Restudy_L2","ON","",3000,NA,NA,NA,NA,NA,NA,NA,NA
"A2HYN1BAX7XB4Y","Collector",1,46,"2016-05-25T14:58:07-07:00","5",2,"Stimuli/versionFstim.txt","Procedure/versionFproc.txt","Tetris",NA,"CONCEALER","","CONCEALER","OFF","AdHoc_Restudy_L2",48,"Study","No","3","AdHoc_Restudy_L2","ON","",3000,NA,NA,NA,NA,NA,NA,NA,NA
"A2HYN1BAX7XB4Y","Collector",1,47,"2016-05-25T14:58:11-07:00","4",2,"Stimuli/versionFstim.txt","Procedure/versionFproc.txt","Tetris",NA,"SHIRT","","SHIRT","OFF","AdHoc_Restudy_L2",49,"Study","No","3","AdHoc_Restudy_L2","ON","",3000,NA,NA,NA,NA,NA,NA,NA,NA
"A2HYN1BAX7XB4Y","Collector",1,48,"2016-05-25T14:58:15-07:00","4",2,"Stimuli/versionFstim.txt","Procedure/versionFproc.txt","Tetris",NA,"MAKE UP","","MAKE UP","OFF","AdHoc_Restudy_L2",57,"Study","No","3","AdHoc_Restudy_L2","ON","",3000,NA,NA,NA,NA,NA,NA,NA,NA
"A2HYN1BAX7XB4Y","Collector",1,49,"2016-05-25T14:58:20-07:00","5",2,"Stimuli/versionFstim.txt","Procedure/versionFproc.txt","Tetris",NA,"HAT","","HAT","OFF","AdHoc_Restudy_L2",43,"Study","No","3","AdHoc_Restudy_L2","ON","",3000,NA,NA,NA,NA,NA,NA,NA,NA
"A2HYN1BAX7XB4Y","Collector",1,50,"2016-05-25T14:58:24-07:00","4",2,"Stimuli/versionFstim.txt","Procedure/versionFproc.txt","Tetris",NA,"GOWN","","GOWN","OFF","AdHoc_Restudy_L2",55,"Study","No","3","AdHoc_Restudy_L2","ON","",3000,NA,NA,NA,NA,NA,NA,NA,NA
"A2HYN1BAX7XB4Y","Collector",1,51,"2016-05-25T14:58:28-07:00","4",2,"Stimuli/versionFstim.txt","Procedure/versionFproc.txt","Tetris",NA,"RING","","RING","OFF","AdHoc_Restudy_L2",50,"Study","No","3","AdHoc_Restudy_L2","ON","",3000,NA,NA,NA,NA,NA,NA,NA,NA
"A2HYN1BAX7XB4Y","Collector",1,52,"2016-05-25T14:58:32-07:00","4",2,"Stimuli/versionFstim.txt","Procedure/versionFproc.txt","Tetris",NA,"SCARF","","SCARF","OFF","AdHoc_Restudy_L2",42,"Study","No","3","AdHoc_Restudy_L2","ON","",3000,NA,NA,NA,NA,NA,NA,NA,NA
"A2HYN1BAX7XB4Y","Collector",1,53,"2016-05-25T14:58:36-07:00","4",2,"Stimuli/versionFstim.txt","Procedure/versionFproc.txt","Tetris",NA,"BOBBY PIN","","BOBBY PIN","OFF","AdHoc_Restudy_L2",56,"Study","No","3","AdHoc_Restudy_L2","ON","",3000,NA,NA,NA,NA,NA,NA,NA,NA
"A2HYN1BAX7XB4Y","Collector",1,54,"2016-05-25T14:58:41-07:00","5",2,"Stimuli/versionFstim.txt","Procedure/versionFproc.txt","Tetris",NA,"DIAMONDS","","DIAMONDS","OFF","AdHoc_Restudy_L2",51,"Study","No","3","AdHoc_Restudy_L2","ON","",3000,NA,NA,NA,NA,NA,NA,NA,NA
"A2HYN1BAX7XB4Y","Collector",1,55,"2016-05-25T14:58:45-07:00","4",2,"Stimuli/versionFstim.txt","Procedure/versionFproc.txt","Tetris",NA,"LIPSTICK","","LIPSTICK","OFF","AdHoc_Restudy_L2",46,"Study","No","3","AdHoc_Restudy_L2","ON","",3000,NA,NA,NA,NA,NA,NA,NA,NA
"A2HYN1BAX7XB4Y","Collector",1,56,"2016-05-25T14:58:50-07:00","5",2,"Stimuli/versionFstim.txt","Procedure/versionFproc.txt","Tetris",NA,"BRACELET","","BRACELET","OFF","AdHoc_Restudy_L2",58,"Study","No","3","AdHoc_Restudy_L2","ON","",3000,NA,NA,NA,NA,NA,NA,NA,NA
"A2HYN1BAX7XB4Y","Collector",1,57,"2016-05-25T14:58:54-07:00","4",2,"Stimuli/versionFstim.txt","Procedure/versionFproc.txt","Tetris",NA,"VEIL","","VEIL","OFF","AdHoc_Restudy_L2",54,"Study","No","3","AdHoc_Restudy_L2","ON","",3000,NA,NA,NA,NA,NA,NA,NA,NA
"A2HYN1BAX7XB4Y","Collector",1,58,"2016-05-25T14:58:58-07:00","4",2,"Stimuli/versionFstim.txt","Procedure/versionFproc.txt","Tetris",NA,"BROOCH","","BROOCH","OFF","AdHoc_Restudy_L2",61,"Study","No","3","AdHoc_Restudy_L2","ON","",3000,NA,NA,NA,NA,NA,NA,NA,NA
"A2HYN1BAX7XB4Y","Collector",1,59,"2016-05-25T14:59:02-07:00","4",2,"Stimuli/versionFstim.txt","Procedure/versionFproc.txt","Tetris",NA,"JEANS","","JEANS","OFF","AdHoc_Restudy_L2",47,"Study","No","3","AdHoc_Restudy_L2","ON","",3000,NA,NA,NA,NA,NA,NA,NA,NA
"A2HYN1BAX7XB4Y","Collector",1,60,"2016-05-25T14:59:07-07:00","5",2,"Stimuli/versionFstim.txt","Procedure/versionFproc.txt","Tetris",NA,"SLIP","","SLIP","OFF","AdHoc_Restudy_L2",53,"Study","No","3","AdHoc_Restudy_L2","ON","",3000,NA,NA,NA,NA,NA,NA,NA,NA
"A2HYN1BAX7XB4Y","Collector",1,61,"2016-05-25T14:59:11-07:00","4",2,"Stimuli/versionFstim.txt","Procedure/versionFproc.txt","Tetris",NA,"EYE SHADOW","","EYE SHADOW","OFF","AdHoc_Restudy_L2",45,"Study","No","3","AdHoc_Restudy_L2","ON","",3000,NA,NA,NA,NA,NA,NA,NA,NA
"A2HYN1BAX7XB4Y","Collector",1,62,"2016-05-25T14:59:16-07:00","5",2,"Stimuli/versionFstim.txt","Procedure/versionFproc.txt","Tetris",NA,"HEADBAND","","HEADBAND","OFF","AdHoc_Restudy_L2",44,"Study","No","3","AdHoc_Restudy_L2","ON","",3000,NA,NA,NA,NA,NA,NA,NA,NA
"A2HYN1BAX7XB4Y","Collector",1,63,"2016-05-25T14:59:20-07:00","4",2,"Stimuli/versionFstim.txt","Procedure/versionFproc.txt","Tetris",NA,"PENDANT","","PENDANT","OFF","AdHoc_Restudy_L2",60,"Study","No","3","AdHoc_Restudy_L2","ON","",3000,NA,NA,NA,NA,NA,NA,NA,NA
"A2HYN1BAX7XB4Y","Collector",1,64,"2016-05-25T14:59:24-07:00","4",2,"Stimuli/versionFstim.txt","Procedure/versionFproc.txt","Tetris",NA,"n/a","n/a","n/a","n/a","n/a",0,"Instruct","N/A","User","Restudy Instructions: You will now view this list again, but in a different order. Click the button below to begin.","OFF","",2490,NA,NA,NA,NA,NA,NA,NA,NA
"A2HYN1BAX7XB4Y","Collector",1,65,"2016-05-25T14:59:28-07:00","4",2,"Stimuli/versionFstim.txt","Procedure/versionFproc.txt","Tetris",NA,"DIAMONDS","","DIAMONDS","OFF","AdHoc_Restudy_L2",71,"Study","No","3","AdHoc_Restudy_L2","ON","",3000,NA,NA,NA,NA,NA,NA,NA,NA
"A2HYN1BAX7XB4Y","Collector",1,66,"2016-05-25T14:59:32-07:00","4",2,"Stimuli/versionFstim.txt","Procedure/versionFproc.txt","Tetris",NA,"VEIL","","VEIL","OFF","AdHoc_Restudy_L2",74,"Study","No","3","AdHoc_Restudy_L2","ON","",3000,NA,NA,NA,NA,NA,NA,NA,NA
"A2HYN1BAX7XB4Y","Collector",1,67,"2016-05-25T14:59:37-07:00","5",2,"Stimuli/versionFstim.txt","Procedure/versionFproc.txt","Tetris",NA,"HEADBAND","","HEADBAND","OFF","AdHoc_Restudy_L2",64,"Study","No","3","AdHoc_Restudy_L2","ON","",3000,NA,NA,NA,NA,NA,NA,NA,NA
"A2HYN1BAX7XB4Y","Collector",1,68,"2016-05-25T14:59:41-07:00","4",2,"Stimuli/versionFstim.txt","Procedure/versionFproc.txt","Tetris",NA,"SHIRT","","SHIRT","OFF","AdHoc_Restudy_L2",69,"Study","No","3","AdHoc_Restudy_L2","ON","",3000,NA,NA,NA,NA,NA,NA,NA,NA
"A2HYN1BAX7XB4Y","Collector",1,69,"2016-05-25T14:59:45-07:00","4",2,"Stimuli/versionFstim.txt","Procedure/versionFproc.txt","Tetris",NA,"EYE SHADOW","","EYE SHADOW","OFF","AdHoc_Restudy_L2",65,"Study","No","3","AdHoc_Restudy_L2","ON","",3000,NA,NA,NA,NA,NA,NA,NA,NA
"A2HYN1BAX7XB4Y","Collector",1,70,"2016-05-25T14:59:50-07:00","5",2,"Stimuli/versionFstim.txt","Procedure/versionFproc.txt","Tetris",NA,"LIPSTICK","","LIPSTICK","OFF","AdHoc_Restudy_L2",66,"Study","No","3","AdHoc_Restudy_L2","ON","",3000,NA,NA,NA,NA,NA,NA,NA,NA
"A2HYN1BAX7XB4Y","Collector",1,71,"2016-05-25T14:59:54-07:00","4",2,"Stimuli/versionFstim.txt","Procedure/versionFproc.txt","Tetris",NA,"PEARLS","","PEARLS","OFF","AdHoc_Restudy_L2",79,"Study","No","3","AdHoc_Restudy_L2","ON","",3000,NA,NA,NA,NA,NA,NA,NA,NA
"A2HYN1BAX7XB4Y","Collector",1,72,"2016-05-25T14:59:58-07:00","4",2,"Stimuli/versionFstim.txt","Procedure/versionFproc.txt","Tetris",NA,"GOWN","","GOWN","OFF","AdHoc_Restudy_L2",75,"Study","No","3","AdHoc_Restudy_L2","ON","",3000,NA,NA,NA,NA,NA,NA,NA,NA
"A2HYN1BAX7XB4Y","Collector",1,73,"2016-05-25T15:00:02-07:00","4",2,"Stimuli/versionFstim.txt","Procedure/versionFproc.txt","Tetris",NA,"MAKE UP","","MAKE UP","OFF","AdHoc_Restudy_L2",77,"Study","No","3","AdHoc_Restudy_L2","ON","",3000,NA,NA,NA,NA,NA,NA,NA,NA
"A2HYN1BAX7XB4Y","Collector",1,74,"2016-05-25T15:00:08-07:00","6",2,"Stimuli/versionFstim.txt","Procedure/versionFproc.txt","Tetris",NA,"BOBBY PIN","","BOBBY PIN","OFF","AdHoc_Restudy_L2",76,"Study","No","3","AdHoc_Restudy_L2","ON","",3000,NA,NA,NA,NA,NA,NA,NA,NA
"A2HYN1BAX7XB4Y","Collector",1,75,"2016-05-25T15:00:12-07:00","4",2,"Stimuli/versionFstim.txt","Procedure/versionFproc.txt","Tetris",NA,"PENDANT","","PENDANT","OFF","AdHoc_Restudy_L2",80,"Study","No","3","AdHoc_Restudy_L2","ON","",3000,NA,NA,NA,NA,NA,NA,NA,NA
"A2HYN1BAX7XB4Y","Collector",1,76,"2016-05-25T15:00:17-07:00","5",2,"Stimuli/versionFstim.txt","Procedure/versionFproc.txt","Tetris",NA,"PANTYHOSE","","PANTYHOSE","OFF","AdHoc_Restudy_L2",72,"Study","No","3","AdHoc_Restudy_L2","ON","",3000,NA,NA,NA,NA,NA,NA,NA,NA
"A2HYN1BAX7XB4Y","Collector",1,77,"2016-05-25T15:00:21-07:00","4",2,"Stimuli/versionFstim.txt","Procedure/versionFproc.txt","Tetris",NA,"SLIP","","SLIP","OFF","AdHoc_Restudy_L2",73,"Study","No","3","AdHoc_Restudy_L2","ON","",3000,NA,NA,NA,NA,NA,NA,NA,NA
"A2HYN1BAX7XB4Y","Collector",1,78,"2016-05-25T15:00:25-07:00","4",2,"Stimuli/versionFstim.txt","Procedure/versionFproc.txt","Tetris",NA,"BRACELET","","BRACELET","OFF","AdHoc_Restudy_L2",78,"Study","No","3","AdHoc_Restudy_L2","ON","",3000,NA,NA,NA,NA,NA,NA,NA,NA
"A2HYN1BAX7XB4Y","Collector",1,79,"2016-05-25T15:00:30-07:00","5",2,"Stimuli/versionFstim.txt","Procedure/versionFproc.txt","Tetris",NA,"BROOCH","","BROOCH","OFF","AdHoc_Restudy_L2",81,"Study","No","3","AdHoc_Restudy_L2","ON","",3000,NA,NA,NA,NA,NA,NA,NA,NA
"A2HYN1BAX7XB4Y","Collector",1,80,"2016-05-25T15:00:34-07:00","4",2,"Stimuli/versionFstim.txt","Procedure/versionFproc.txt","Tetris",NA,"JEANS","","JEANS","OFF","AdHoc_Restudy_L2",67,"Study","No","3","AdHoc_Restudy_L2","ON","",3000,NA,NA,NA,NA,NA,NA,NA,NA
"A2HYN1BAX7XB4Y","Collector",1,81,"2016-05-25T15:00:38-07:00","4",2,"Stimuli/versionFstim.txt","Procedure/versionFproc.txt","Tetris",NA,"SCARF","","SCARF","OFF","AdHoc_Restudy_L2",62,"Study","No","3","AdHoc_Restudy_L2","ON","",3000,NA,NA,NA,NA,NA,NA,NA,NA
"A2HYN1BAX7XB4Y","Collector",1,82,"2016-05-25T15:00:42-07:00","4",2,"Stimuli/versionFstim.txt","Procedure/versionFproc.txt","Tetris",NA,"RING","","RING","OFF","AdHoc_Restudy_L2",70,"Study","No","3","AdHoc_Restudy_L2","ON","",3000,NA,NA,NA,NA,NA,NA,NA,NA
"A2HYN1BAX7XB4Y","Collector",1,83,"2016-05-25T15:00:47-07:00","5",2,"Stimuli/versionFstim.txt","Procedure/versionFproc.txt","Tetris",NA,"HAT","","HAT","OFF","AdHoc_Restudy_L2",63,"Study","No","3","AdHoc_Restudy_L2","ON","",3000,NA,NA,NA,NA,NA,NA,NA,NA
"A2HYN1BAX7XB4Y","Collector",1,84,"2016-05-25T15:00:51-07:00","4",2,"Stimuli/versionFstim.txt","Procedure/versionFproc.txt","Tetris",NA,"CONCEALER","","CONCEALER","OFF","AdHoc_Restudy_L2",68,"Study","No","3","AdHoc_Restudy_L2","ON","",3000,NA,NA,NA,NA,NA,NA,NA,NA
"A2HYN1BAX7XB4Y","Collector",1,85,"2016-05-25T15:00:56-07:00","5",2,"Stimuli/versionFstim.txt","Procedure/versionFproc.txt","Tetris",NA,"n/a","n/a","n/a","n/a","n/a",0,"Instruct","N/A","User","Click the button below for a new list.","OFF","",3800,NA,NA,NA,NA,NA,NA,NA,NA
"A2HYN1BAX7XB4Y","Collector",1,86,"2016-05-25T15:01:00-07:00","4",2,"Stimuli/versionFstim.txt","Procedure/versionFproc.txt","Tetris",NA,"ARMOIRE","","ARMOIRE","OFF","Cat_Restudy_L3",82,"Study","No","3","Cat_Restudy_L3","ON","",3000,NA,NA,NA,NA,NA,NA,NA,NA
"A2HYN1BAX7XB4Y","Collector",1,87,"2016-05-25T15:01:05-07:00","5",2,"Stimuli/versionFstim.txt","Procedure/versionFproc.txt","Tetris",NA,"CHAISE","","CHAISE","OFF","Cat_Restudy_L3",97,"Study","No","3","Cat_Restudy_L3","ON","",3000,NA,NA,NA,NA,NA,NA,NA,NA
"A2HYN1BAX7XB4Y","Collector",1,88,"2016-05-25T15:01:09-07:00","4",2,"Stimuli/versionFstim.txt","Procedure/versionFproc.txt","Tetris",NA,"COT","","COT","OFF","Cat_Restudy_L3",95,"Study","No","3","Cat_Restudy_L3","ON","",3000,NA,NA,NA,NA,NA,NA,NA,NA
"A2HYN1BAX7XB4Y","Collector",1,89,"2016-05-25T15:01:13-07:00","4",2,"Stimuli/versionFstim.txt","Procedure/versionFproc.txt","Tetris",NA,"RUG","","RUG","OFF","Cat_Restudy_L3",86,"Study","No","3","Cat_Restudy_L3","ON","",3000,NA,NA,NA,NA,NA,NA,NA,NA
"A2HYN1BAX7XB4Y","Collector",1,90,"2016-05-25T15:01:17-07:00","4",2,"Stimuli/versionFstim.txt","Procedure/versionFproc.txt","Tetris",NA,"MIRROR","","MIRROR","OFF","Cat_Restudy_L3",98,"Study","No","3","Cat_Restudy_L3","ON","",3000,NA,NA,NA,NA,NA,NA,NA,NA
"A2HYN1BAX7XB4Y","Collector",1,91,"2016-05-25T15:01:22-07:00","5",2,"Stimuli/versionFstim.txt","Procedure/versionFproc.txt","Tetris",NA,"COUCH","","COUCH","OFF","Cat_Restudy_L3",84,"Study","No","3","Cat_Restudy_L3","ON","",3000,NA,NA,NA,NA,NA,NA,NA,NA
"A2HYN1BAX7XB4Y","Collector",1,92,"2016-05-25T15:01:26-07:00","4",2,"Stimuli/versionFstim.txt","Procedure/versionFproc.txt","Tetris",NA,"LOVE SEAT","","LOVE SEAT","OFF","Cat_Restudy_L3",96,"Study","No","3","Cat_Restudy_L3","ON","",3000,NA,NA,NA,NA,NA,NA,NA,NA
"A2HYN1BAX7XB4Y","Collector",1,93,"2016-05-25T15:01:30-07:00","4",2,"Stimuli/versionFstim.txt","Procedure/versionFproc.txt","Tetris",NA,"TELEVISION","","TELEVISION","OFF","Cat_Restudy_L3",85,"Study","No","3","Cat_Restudy_L3","ON","",3000,NA,NA,NA,NA,NA,NA,NA,NA
"A2HYN1BAX7XB4Y","Collector",1,94,"2016-05-25T15:01:34-07:00","4",2,"Stimuli/versionFstim.txt","Procedure/versionFproc.txt","Tetris",NA,"CHEST","","CHEST","OFF","Cat_Restudy_L3",90,"Study","No","3","Cat_Restudy_L3","ON","",3000,NA,NA,NA,NA,NA,NA,NA,NA
"A2HYN1BAX7XB4Y","Collector",1,95,"2016-05-25T15:01:38-07:00","4",2,"Stimuli/versionFstim.txt","Procedure/versionFproc.txt","Tetris",NA,"END TABLE","","END TABLE","OFF","Cat_Restudy_L3",93,"Study","No","3","Cat_Restudy_L3","ON","",3000,NA,NA,NA,NA,NA,NA,NA,NA
"A2HYN1BAX7XB4Y","Collector",1,96,"2016-05-25T15:01:43-07:00","5",2,"Stimuli/versionFstim.txt","Procedure/versionFproc.txt","Tetris",NA,"DAVENPORT","","DAVENPORT","OFF","Cat_Restudy_L3",101,"Study","No","3","Cat_Restudy_L3","ON","",3000,NA,NA,NA,NA,NA,NA,NA,NA
"A2HYN1BAX7XB4Y","Collector",1,97,"2016-05-25T15:01:47-07:00","4",2,"Stimuli/versionFstim.txt","Procedure/versionFproc.txt","Tetris",NA,"FOOTSTOOL","","FOOTSTOOL","OFF","Cat_Restudy_L3",92,"Study","No","3","Cat_Restudy_L3","ON","",3000,NA,NA,NA,NA,NA,NA,NA,NA
"A2HYN1BAX7XB4Y","Collector",1,98,"2016-05-25T15:01:51-07:00","4",2,"Stimuli/versionFstim.txt","Procedure/versionFproc.txt","Tetris",NA,"OTTOMAN","","OTTOMAN","OFF","Cat_Restudy_L3",89,"Study","No","3","Cat_Restudy_L3","ON","",3000,NA,NA,NA,NA,NA,NA,NA,NA
"A2HYN1BAX7XB4Y","Collector",1,99,"2016-05-25T15:01:57-07:00","6",2,"Stimuli/versionFstim.txt","Procedure/versionFproc.txt","Tetris",NA,"CRIB","","CRIB","OFF","Cat_Restudy_L3",94,"Study","No","3","Cat_Restudy_L3","ON","",3000,NA,NA,NA,NA,NA,NA,NA,NA
"A2HYN1BAX7XB4Y","Collector",1,100,"2016-05-25T15:02:01-07:00","4",2,"Stimuli/versionFstim.txt","Procedure/versionFproc.txt","Tetris",NA,"CHINA CLOSET","","CHINA CLOSET","OFF","Cat_Restudy_L3",99,"Study","No","3","Cat_Restudy_L3","ON","",3000,NA,NA,NA,NA,NA,NA,NA,NA
"A2HYN1BAX7XB4Y","Collector",1,101,"2016-05-25T15:02:05-07:00","4",2,"Stimuli/versionFstim.txt","Procedure/versionFproc.txt","Tetris",NA,"ROCKING CHAIR","","ROCKING CHAIR","OFF","Cat_Restudy_L3",100,"Study","No","3","Cat_Restudy_L3","ON","",3000,NA,NA,NA,NA,NA,NA,NA,NA
"A2HYN1BAX7XB4Y","Collector",1,102,"2016-05-25T15:02:10-07:00","5",2,"Stimuli/versionFstim.txt","Procedure/versionFproc.txt","Tetris",NA,"COFFEE TABLE","","COFFEE TABLE","OFF","Cat_Restudy_L3",87,"Study","No","3","Cat_Restudy_L3","ON","",3000,NA,NA,NA,NA,NA,NA,NA,NA
"A2HYN1BAX7XB4Y","Collector",1,103,"2016-05-25T15:02:14-07:00","4",2,"Stimuli/versionFstim.txt","Procedure/versionFproc.txt","Tetris",NA,"PIANO","","PIANO","OFF","Cat_Restudy_L3",91,"Study","No","3","Cat_Restudy_L3","ON","",3000,NA,NA,NA,NA,NA,NA,NA,NA
"A2HYN1BAX7XB4Y","Collector",1,104,"2016-05-25T15:02:21-07:00","7",2,"Stimuli/versionFstim.txt","Procedure/versionFproc.txt","Tetris",NA,"BOOKCASE","","BOOKCASE","OFF","Cat_Restudy_L3",88,"Study","No","3","Cat_Restudy_L3","ON","",3000,NA,NA,NA,NA,NA,NA,NA,NA
"A2HYN1BAX7XB4Y","Collector",1,105,"2016-05-25T15:02:25-07:00","4",2,"Stimuli/versionFstim.txt","Procedure/versionFproc.txt","Tetris",NA,"CRADLE","","CRADLE","OFF","Cat_Restudy_L3",83,"Study","No","3","Cat_Restudy_L3","ON","",3000,NA,NA,NA,NA,NA,NA,NA,NA
"A2HYN1BAX7XB4Y","Collector",1,106,"2016-05-25T15:02:30-07:00","5",2,"Stimuli/versionFstim.txt","Procedure/versionFproc.txt","Tetris",NA,"n/a","n/a","n/a","n/a","n/a",0,"Instruct","N/A","User","Restudy Instructions: You will now view this list again, but in a different order. Click the button below to begin.","OFF","",3060,NA,NA,NA,NA,NA,NA,NA,NA
"A2HYN1BAX7XB4Y","Collector",1,107,"2016-05-25T15:02:34-07:00","4",2,"Stimuli/versionFstim.txt","Procedure/versionFproc.txt","Tetris",NA,"END TABLE","","END TABLE","OFF","Cat_Restudy_L3",113,"Study","No","3","Cat_Restudy_L3","ON","",3000,NA,NA,NA,NA,NA,NA,NA,NA
"A2HYN1BAX7XB4Y","Collector",1,108,"2016-05-25T15:02:38-07:00","4",2,"Stimuli/versionFstim.txt","Procedure/versionFproc.txt","Tetris",NA,"DAVENPORT","","DAVENPORT","OFF","Cat_Restudy_L3",121,"Study","No","3","Cat_Restudy_L3","ON","",3000,NA,NA,NA,NA,NA,NA,NA,NA
"A2HYN1BAX7XB4Y","Collector",1,109,"2016-05-25T15:02:43-07:00","5",2,"Stimuli/versionFstim.txt","Procedure/versionFproc.txt","Tetris",NA,"OTTOMAN","","OTTOMAN","OFF","Cat_Restudy_L3",109,"Study","No","3","Cat_Restudy_L3","ON","",3000,NA,NA,NA,NA,NA,NA,NA,NA
"A2HYN1BAX7XB4Y","Collector",1,110,"2016-05-25T15:02:48-07:00","5",2,"Stimuli/versionFstim.txt","Procedure/versionFproc.txt","Tetris",NA,"TELEVISION","","TELEVISION","OFF","Cat_Restudy_L3",105,"Study","No","3","Cat_Restudy_L3","ON","",3000,NA,NA,NA,NA,NA,NA,NA,NA
"A2HYN1BAX7XB4Y","Collector",1,111,"2016-05-25T15:02:52-07:00","4",2,"Stimuli/versionFstim.txt","Procedure/versionFproc.txt","Tetris",NA,"BOOKCASE","","BOOKCASE","OFF","Cat_Restudy_L3",108,"Study","No","3","Cat_Restudy_L3","ON","",3000,NA,NA,NA,NA,NA,NA,NA,NA
"A2HYN1BAX7XB4Y","Collector",1,112,"2016-05-25T15:02:57-07:00","5",2,"Stimuli/versionFstim.txt","Procedure/versionFproc.txt","Tetris",NA,"CHAISE","","CHAISE","OFF","Cat_Restudy_L3",117,"Study","No","3","Cat_Restudy_L3","ON","",3000,NA,NA,NA,NA,NA,NA,NA,NA
"A2HYN1BAX7XB4Y","Collector",1,113,"2016-05-25T15:03:09-07:00","12",2,"Stimuli/versionFstim.txt","Procedure/versionFproc.txt","Tetris",NA,"MIRROR","","MIRROR","OFF","Cat_Restudy_L3",118,"Study","No","3","Cat_Restudy_L3","ON","",3000,NA,NA,NA,NA,NA,NA,NA,NA
"A2HYN1BAX7XB4Y","Collector",1,114,"2016-05-25T15:03:13-07:00","4",2,"Stimuli/versionFstim.txt","Procedure/versionFproc.txt","Tetris",NA,"CHEST","","CHEST","OFF","Cat_Restudy_L3",110,"Study","No","3","Cat_Restudy_L3","ON","",3000,NA,NA,NA,NA,NA,NA,NA,NA
"A2HYN1BAX7XB4Y","Collector",1,115,"2016-05-25T15:03:17-07:00","4",2,"Stimuli/versionFstim.txt","Procedure/versionFproc.txt","Tetris",NA,"LOVE SEAT","","LOVE SEAT","OFF","Cat_Restudy_L3",116,"Study","No","3","Cat_Restudy_L3","ON","",3000,NA,NA,NA,NA,NA,NA,NA,NA
"A2HYN1BAX7XB4Y","Collector",1,116,"2016-05-25T15:03:21-07:00","4",2,"Stimuli/versionFstim.txt","Procedure/versionFproc.txt","Tetris",NA,"CHINA CLOSET","","CHINA CLOSET","OFF","Cat_Restudy_L3",119,"Study","No","3","Cat_Restudy_L3","ON","",3000,NA,NA,NA,NA,NA,NA,NA,NA
"A2HYN1BAX7XB4Y","Collector",1,117,"2016-05-25T15:03:25-07:00","4",2,"Stimuli/versionFstim.txt","Procedure/versionFproc.txt","Tetris",NA,"CRADLE","","CRADLE","OFF","Cat_Restudy_L3",103,"Study","No","3","Cat_Restudy_L3","ON","",3000,NA,NA,NA,NA,NA,NA,NA,NA
"A2HYN1BAX7XB4Y","Collector",1,118,"2016-05-25T15:03:31-07:00","6",2,"Stimuli/versionFstim.txt","Procedure/versionFproc.txt","Tetris",NA,"COFFEE TABLE","","COFFEE TABLE","OFF","Cat_Restudy_L3",107,"Study","No","3","Cat_Restudy_L3","ON","",3000,NA,NA,NA,NA,NA,NA,NA,NA
"A2HYN1BAX7XB4Y","Collector",1,119,"2016-05-25T15:03:36-07:00","5",2,"Stimuli/versionFstim.txt","Procedure/versionFproc.txt","Tetris",NA,"ARMOIRE","","ARMOIRE","OFF","Cat_Restudy_L3",102,"Study","No","3","Cat_Restudy_L3","ON","",3000,NA,NA,NA,NA,NA,NA,NA,NA
"A2HYN1BAX7XB4Y","Collector",1,120,"2016-05-25T15:03:40-07:00","4",2,"Stimuli/versionFstim.txt","Procedure/versionFproc.txt","Tetris",NA,"COT","","COT","OFF","Cat_Restudy_L3",115,"Study","No","3","Cat_Restudy_L3","ON","",3000,NA,NA,NA,NA,NA,NA,NA,NA
"A2HYN1BAX7XB4Y","Collector",1,121,"2016-05-25T15:03:45-07:00","5",2,"Stimuli/versionFstim.txt","Procedure/versionFproc.txt","Tetris",NA,"FOOTSTOOL","","FOOTSTOOL","OFF","Cat_Restudy_L3",112,"Study","No","3","Cat_Restudy_L3","ON","",3000,NA,NA,NA,NA,NA,NA,NA,NA
"A2HYN1BAX7XB4Y","Collector",1,122,"2016-05-25T15:03:49-07:00","4",2,"Stimuli/versionFstim.txt","Procedure/versionFproc.txt","Tetris",NA,"RUG","","RUG","OFF","Cat_Restudy_L3",106,"Study","No","3","Cat_Restudy_L3","ON","",3000,NA,NA,NA,NA,NA,NA,NA,NA
"A2HYN1BAX7XB4Y","Collector",1,123,"2016-05-25T15:03:54-07:00","5",2,"Stimuli/versionFstim.txt","Procedure/versionFproc.txt","Tetris",NA,"COUCH","","COUCH","OFF","Cat_Restudy_L3",104,"Study","No","3","Cat_Restudy_L3","ON","",3000,NA,NA,NA,NA,NA,NA,NA,NA
"A2HYN1BAX7XB4Y","Collector",1,124,"2016-05-25T15:03:58-07:00","4",2,"Stimuli/versionFstim.txt","Procedure/versionFproc.txt","Tetris",NA,"ROCKING CHAIR","","ROCKING CHAIR","OFF","Cat_Restudy_L3",120,"Study","No","3","Cat_Restudy_L3","ON","",3000,NA,NA,NA,NA,NA,NA,NA,NA
"A2HYN1BAX7XB4Y","Collector",1,125,"2016-05-25T15:04:03-07:00","5",2,"Stimuli/versionFstim.txt","Procedure/versionFproc.txt","Tetris",NA,"CRIB","","CRIB","OFF","Cat_Restudy_L3",114,"Study","No","3","Cat_Restudy_L3","ON","",3000,NA,NA,NA,NA,NA,NA,NA,NA
"A2HYN1BAX7XB4Y","Collector",1,126,"2016-05-25T15:04:07-07:00","4",2,"Stimuli/versionFstim.txt","Procedure/versionFproc.txt","Tetris",NA,"PIANO","","PIANO","OFF","Cat_Restudy_L3",111,"Study","No","3","Cat_Restudy_L3","ON","",3000,NA,NA,NA,NA,NA,NA,NA,NA
"A2HYN1BAX7XB4Y","Collector",1,127,"2016-05-25T15:04:11-07:00","4",2,"Stimuli/versionFstim.txt","Procedure/versionFproc.txt","Tetris",NA,"n/a","n/a","n/a","n/a","n/a",0,"Instruct","N/A","User","Click the button below for a new list.","OFF","",2590,NA,NA,NA,NA,NA,NA,NA,NA
"A2HYN1BAX7XB4Y","Collector",1,128,"2016-05-25T15:04:15-07:00","4",2,"Stimuli/versionFstim.txt","Procedure/versionFproc.txt","Tetris",NA,"DAIRY","","DAIRY","OFF","Unrel_Restudy_L4",133,"Study","No","3","Unrel_Restudy_L4","ON","",3000,NA,NA,NA,NA,NA,NA,NA,NA
"A2HYN1BAX7XB4Y","Collector",1,129,"2016-05-25T15:04:19-07:00","4",2,"Stimuli/versionFstim.txt","Procedure/versionFproc.txt","Tetris",NA,"GAUZE","","GAUZE","OFF","Unrel_Restudy_L4",131,"Study","No","3","Unrel_Restudy_L4","ON","",3000,NA,NA,NA,NA,NA,NA,NA,NA
"A2HYN1BAX7XB4Y","Collector",1,130,"2016-05-25T15:04:24-07:00","5",2,"Stimuli/versionFstim.txt","Procedure/versionFproc.txt","Tetris",NA,"KNOB","","KNOB","OFF","Unrel_Restudy_L4",123,"Study","No","3","Unrel_Restudy_L4","ON","",3000,NA,NA,NA,NA,NA,NA,NA,NA
"A2HYN1BAX7XB4Y","Collector",1,131,"2016-05-25T15:04:29-07:00","5",2,"Stimuli/versionFstim.txt","Procedure/versionFproc.txt","Tetris",NA,"TULIP","","TULIP","OFF","Unrel_Restudy_L4",122,"Study","No","3","Unrel_Restudy_L4","ON","",3000,NA,NA,NA,NA,NA,NA,NA,NA
"A2HYN1BAX7XB4Y","Collector",1,132,"2016-05-25T15:04:33-07:00","4",2,"Stimuli/versionFstim.txt","Procedure/versionFproc.txt","Tetris",NA,"LOLLIPOP","","LOLLIPOP","OFF","Unrel_Restudy_L4",140,"Study","No","3","Unrel_Restudy_L4","ON","",3000,NA,NA,NA,NA,NA,NA,NA,NA
"A2HYN1BAX7XB4Y","Collector",1,133,"2016-05-25T15:04:37-07:00","4",2,"Stimuli/versionFstim.txt","Procedure/versionFproc.txt","Tetris",NA,"CHEEK","","CHEEK","OFF","Unrel_Restudy_L4",135,"Study","No","3","Unrel_Restudy_L4","ON","",3000,NA,NA,NA,NA,NA,NA,NA,NA
"A2HYN1BAX7XB4Y","Collector",1,134,"2016-05-25T15:04:41-07:00","4",2,"Stimuli/versionFstim.txt","Procedure/versionFproc.txt","Tetris",NA,"MIST","","MIST","OFF","Unrel_Restudy_L4",141,"Study","No","3","Unrel_Restudy_L4","ON","",3000,NA,NA,NA,NA,NA,NA,NA,NA
"A2HYN1BAX7XB4Y","Collector",1,135,"2016-05-25T15:04:46-07:00","5",2,"Stimuli/versionFstim.txt","Procedure/versionFproc.txt","Tetris",NA,"DANCER","","DANCER","OFF","Unrel_Restudy_L4",134,"Study","No","3","Unrel_Restudy_L4","ON","",3000,NA,NA,NA,NA,NA,NA,NA,NA
"A2HYN1BAX7XB4Y","Collector",1,136,"2016-05-25T15:04:50-07:00","4",2,"Stimuli/versionFstim.txt","Procedure/versionFproc.txt","Tetris",NA,"WHEEL","","WHEEL","OFF","Unrel_Restudy_L4",138,"Study","No","3","Unrel_Restudy_L4","ON","",3000,NA,NA,NA,NA,NA,NA,NA,NA
"A2HYN1BAX7XB4Y","Collector",1,137,"2016-05-25T15:04:54-07:00","4",2,"Stimuli/versionFstim.txt","Procedure/versionFproc.txt","Tetris",NA,"NECTAR","","NECTAR","OFF","Unrel_Restudy_L4",137,"Study","No","3","Unrel_Restudy_L4","ON","",3000,NA,NA,NA,NA,NA,NA,NA,NA
"A2HYN1BAX7XB4Y","Collector",1,138,"2016-05-25T15:04:58-07:00","4",2,"Stimuli/versionFstim.txt","Procedure/versionFproc.txt","Tetris",NA,"FOAM","","FOAM","OFF","Unrel_Restudy_L4",125,"Study","No","3","Unrel_Restudy_L4","ON","",3000,NA,NA,NA,NA,NA,NA,NA,NA
"A2HYN1BAX7XB4Y","Collector",1,139,"2016-05-25T15:05:04-07:00","6",2,"Stimuli/versionFstim.txt","Procedure/versionFproc.txt","Tetris",NA,"LAND","","LAND","OFF","Unrel_Restudy_L4",127,"Study","No","3","Unrel_Restudy_L4","ON","",3000,NA,NA,NA,NA,NA,NA,NA,NA
"A2HYN1BAX7XB4Y","Collector",1,140,"2016-05-25T15:05:08-07:00","4",2,"Stimuli/versionFstim.txt","Procedure/versionFproc.txt","Tetris",NA,"BEVERAGE","","BEVERAGE","OFF","Unrel_Restudy_L4",128,"Study","No","3","Unrel_Restudy_L4","ON","",3000,NA,NA,NA,NA,NA,NA,NA,NA
"A2HYN1BAX7XB4Y","Collector",1,141,"2016-05-25T15:05:13-07:00","5",2,"Stimuli/versionFstim.txt","Procedure/versionFproc.txt","Tetris",NA,"SHRUB","","SHRUB","OFF","Unrel_Restudy_L4",132,"Study","No","3","Unrel_Restudy_L4","ON","",3000,NA,NA,NA,NA,NA,NA,NA,NA
"A2HYN1BAX7XB4Y","Collector",1,142,"2016-05-25T15:05:17-07:00","4",2,"Stimuli/versionFstim.txt","Procedure/versionFproc.txt","Tetris",NA,"PAIL","","PAIL","OFF","Unrel_Restudy_L4",136,"Study","No","3","Unrel_Restudy_L4","ON","",3000,NA,NA,NA,NA,NA,NA,NA,NA
"A2HYN1BAX7XB4Y","Collector",1,143,"2016-05-25T15:05:21-07:00","4",2,"Stimuli/versionFstim.txt","Procedure/versionFproc.txt","Tetris",NA,"STARS","","STARS","OFF","Unrel_Restudy_L4",124,"Study","No","3","Unrel_Restudy_L4","ON","",3000,NA,NA,NA,NA,NA,NA,NA,NA
"A2HYN1BAX7XB4Y","Collector",1,144,"2016-05-25T15:05:26-07:00","5",2,"Stimuli/versionFstim.txt","Procedure/versionFproc.txt","Tetris",NA,"CLOAK","","CLOAK","OFF","Unrel_Restudy_L4",139,"Study","No","3","Unrel_Restudy_L4","ON","",3000,NA,NA,NA,NA,NA,NA,NA,NA
"A2HYN1BAX7XB4Y","Collector",1,145,"2016-05-25T15:05:30-07:00","4",2,"Stimuli/versionFstim.txt","Procedure/versionFproc.txt","Tetris",NA,"COSTUME","","COSTUME","OFF","Unrel_Restudy_L4",130,"Study","No","3","Unrel_Restudy_L4","ON","",3000,NA,NA,NA,NA,NA,NA,NA,NA
"A2HYN1BAX7XB4Y","Collector",1,146,"2016-05-25T15:05:34-07:00","4",2,"Stimuli/versionFstim.txt","Procedure/versionFproc.txt","Tetris",NA,"VOTE","","VOTE","OFF","Unrel_Restudy_L4",126,"Study","No","3","Unrel_Restudy_L4","ON","",3000,NA,NA,NA,NA,NA,NA,NA,NA
"A2HYN1BAX7XB4Y","Collector",1,147,"2016-05-25T15:05:38-07:00","4",2,"Stimuli/versionFstim.txt","Procedure/versionFproc.txt","Tetris",NA,"OTTER","","OTTER","OFF","Unrel_Restudy_L4",129,"Study","No","3","Unrel_Restudy_L4","ON","",3000,NA,NA,NA,NA,NA,NA,NA,NA
"A2HYN1BAX7XB4Y","Collector",1,148,"2016-05-25T15:05:43-07:00","5",2,"Stimuli/versionFstim.txt","Procedure/versionFproc.txt","Tetris",NA,"n/a","n/a","n/a","n/a","n/a",0,"Instruct","N/A","User","Restudy Instructions: You will now view this list again, but in a different order. Click the button below to begin.","OFF","",3050,NA,NA,NA,NA,NA,NA,NA,NA
"A2HYN1BAX7XB4Y","Collector",1,149,"2016-05-25T15:05:49-07:00","6",2,"Stimuli/versionFstim.txt","Procedure/versionFproc.txt","Tetris",NA,"MIST","","MIST","OFF","Unrel_Restudy_L4",161,"Study","No","3","Unrel_Restudy_L4","ON","",3000,NA,NA,NA,NA,NA,NA,NA,NA
"A2HYN1BAX7XB4Y","Collector",1,150,"2016-05-25T15:05:53-07:00","4",2,"Stimuli/versionFstim.txt","Procedure/versionFproc.txt","Tetris",NA,"DAIRY","","DAIRY","OFF","Unrel_Restudy_L4",153,"Study","No","3","Unrel_Restudy_L4","ON","",3000,NA,NA,NA,NA,NA,NA,NA,NA
"A2HYN1BAX7XB4Y","Collector",1,151,"2016-05-25T15:05:57-07:00","4",2,"Stimuli/versionFstim.txt","Procedure/versionFproc.txt","Tetris",NA,"CHEEK","","CHEEK","OFF","Unrel_Restudy_L4",155,"Study","No","3","Unrel_Restudy_L4","ON","",3000,NA,NA,NA,NA,NA,NA,NA,NA
"A2HYN1BAX7XB4Y","Collector",1,152,"2016-05-25T15:06:01-07:00","4",2,"Stimuli/versionFstim.txt","Procedure/versionFproc.txt","Tetris",NA,"BEVERAGE","","BEVERAGE","OFF","Unrel_Restudy_L4",148,"Study","No","3","Unrel_Restudy_L4","ON","",3000,NA,NA,NA,NA,NA,NA,NA,NA
"A2HYN1BAX7XB4Y","Collector",1,153,"2016-05-25T15:06:06-07:00","5",2,"Stimuli/versionFstim.txt","Procedure/versionFproc.txt","Tetris",NA,"STARS","","STARS","OFF","Unrel_Restudy_L4",144,"Study","No","3","Unrel_Restudy_L4","ON","",3000,NA,NA,NA,NA,NA,NA,NA,NA
"A2HYN1BAX7XB4Y","Collector",1,154,"2016-05-25T15:06:10-07:00","4",2,"Stimuli/versionFstim.txt","Procedure/versionFproc.txt","Tetris",NA,"PAIL","","PAIL","OFF","Unrel_Restudy_L4",156,"Study","No","3","Unrel_Restudy_L4","ON","",3000,NA,NA,NA,NA,NA,NA,NA,NA
"A2HYN1BAX7XB4Y","Collector",1,155,"2016-05-25T15:06:14-07:00","4",2,"Stimuli/versionFstim.txt","Procedure/versionFproc.txt","Tetris",NA,"DANCER","","DANCER","OFF","Unrel_Restudy_L4",154,"Study","No","3","Unrel_Restudy_L4","ON","",3000,NA,NA,NA,NA,NA,NA,NA,NA
"A2HYN1BAX7XB4Y","Collector",1,156,"2016-05-25T15:06:19-07:00","5",2,"Stimuli/versionFstim.txt","Procedure/versionFproc.txt","Tetris",NA,"OTTER","","OTTER","OFF","Unrel_Restudy_L4",149,"Study","No","3","Unrel_Restudy_L4","ON","",3000,NA,NA,NA,NA,NA,NA,NA,NA
"A2HYN1BAX7XB4Y","Collector",1,157,"2016-05-25T15:06:23-07:00","4",2,"Stimuli/versionFstim.txt","Procedure/versionFproc.txt","Tetris",NA,"CLOAK","","CLOAK","OFF","Unrel_Restudy_L4",159,"Study","No","3","Unrel_Restudy_L4","ON","",3000,NA,NA,NA,NA,NA,NA,NA,NA
"A2HYN1BAX7XB4Y","Collector",1,158,"2016-05-25T15:06:27-07:00","4",2,"Stimuli/versionFstim.txt","Procedure/versionFproc.txt","Tetris",NA,"TULIP","","TULIP","OFF","Unrel_Restudy_L4",142,"Study","No","3","Unrel_Restudy_L4","ON","",3000,NA,NA,NA,NA,NA,NA,NA,NA
"A2HYN1BAX7XB4Y","Collector",1,159,"2016-05-25T15:06:31-07:00","4",2,"Stimuli/versionFstim.txt","Procedure/versionFproc.txt","Tetris",NA,"WHEEL","","WHEEL","OFF","Unrel_Restudy_L4",158,"Study","No","3","Unrel_Restudy_L4","ON","",3000,NA,NA,NA,NA,NA,NA,NA,NA
"A2HYN1BAX7XB4Y","Collector",1,160,"2016-05-25T15:06:36-07:00","5",2,"Stimuli/versionFstim.txt","Procedure/versionFproc.txt","Tetris",NA,"GAUZE","","GAUZE","OFF","Unrel_Restudy_L4",151,"Study","No","3","Unrel_Restudy_L4","ON","",3000,NA,NA,NA,NA,NA,NA,NA,NA
"A2HYN1BAX7XB4Y","Collector",1,161,"2016-05-25T15:06:40-07:00","4",2,"Stimuli/versionFstim.txt","Procedure/versionFproc.txt","Tetris",NA,"COSTUME","","COSTUME","OFF","Unrel_Restudy_L4",150,"Study","No","3","Unrel_Restudy_L4","ON","",3000,NA,NA,NA,NA,NA,NA,NA,NA
"A2HYN1BAX7XB4Y","Collector",1,162,"2016-05-25T15:06:44-07:00","4",2,"Stimuli/versionFstim.txt","Procedure/versionFproc.txt","Tetris",NA,"SHRUB","","SHRUB","OFF","Unrel_Restudy_L4",152,"Study","No","3","Unrel_Restudy_L4","ON","",3000,NA,NA,NA,NA,NA,NA,NA,NA
"A2HYN1BAX7XB4Y","Collector",1,163,"2016-05-25T15:07:03-07:00","19",2,"Stimuli/versionFstim.txt","Procedure/versionFproc.txt","Tetris",NA,"FOAM","","FOAM","OFF","Unrel_Restudy_L4",145,"Study","No","3","Unrel_Restudy_L4","ON","",3000,NA,NA,NA,NA,NA,NA,NA,NA
"A2HYN1BAX7XB4Y","Collector",1,164,"2016-05-25T15:07:07-07:00","4",2,"Stimuli/versionFstim.txt","Procedure/versionFproc.txt","Tetris",NA,"LOLLIPOP","","LOLLIPOP","OFF","Unrel_Restudy_L4",160,"Study","No","3","Unrel_Restudy_L4","ON","",3000,NA,NA,NA,NA,NA,NA,NA,NA
"A2HYN1BAX7XB4Y","Collector",1,165,"2016-05-25T15:07:12-07:00","5",2,"Stimuli/versionFstim.txt","Procedure/versionFproc.txt","Tetris",NA,"LAND","","LAND","OFF","Unrel_Restudy_L4",147,"Study","No","3","Unrel_Restudy_L4","ON","",3000,NA,NA,NA,NA,NA,NA,NA,NA
"A2HYN1BAX7XB4Y","Collector",1,166,"2016-05-25T15:07:16-07:00","4",2,"Stimuli/versionFstim.txt","Procedure/versionFproc.txt","Tetris",NA,"KNOB","","KNOB","OFF","Unrel_Restudy_L4",143,"Study","No","3","Unrel_Restudy_L4","ON","",3000,NA,NA,NA,NA,NA,NA,NA,NA
"A2HYN1BAX7XB4Y","Collector",1,167,"2016-05-25T15:07:20-07:00","4",2,"Stimuli/versionFstim.txt","Procedure/versionFproc.txt","Tetris",NA,"NECTAR","","NECTAR","OFF","Unrel_Restudy_L4",157,"Study","No","3","Unrel_Restudy_L4","ON","",3000,NA,NA,NA,NA,NA,NA,NA,NA
"A2HYN1BAX7XB4Y","Collector",1,168,"2016-05-25T15:07:25-07:00","5",2,"Stimuli/versionFstim.txt","Procedure/versionFproc.txt","Tetris",NA,"VOTE","","VOTE","OFF","Unrel_Restudy_L4",146,"Study","No","3","Unrel_Restudy_L4","ON","",3000,NA,NA,NA,NA,NA,NA,NA,NA
"A2HYN1BAX7XB4Y","Collector",1,169,"2016-05-25T15:07:29-07:00","4",2,"Stimuli/versionFstim.txt","Procedure/versionFproc.txt","Tetris",NA,"n/a","n/a","n/a","n/a","n/a",0,"Instruct","N/A","User","Click the button below for a new list.","OFF","",2330,NA,NA,NA,NA,NA,NA,NA,NA
"A2HYN1BAX7XB4Y","Collector",1,170,"2016-05-25T15:07:33-07:00","4",2,"Stimuli/versionFstim.txt","Procedure/versionFproc.txt","Tetris",NA,"ANCHOR","","ANCHOR","OFF","Unrel_Restudy_L5",164,"Study","No","3","Unrel_Restudy_L5","ON","",3000,NA,NA,NA,NA,NA,NA,NA,NA
"A2HYN1BAX7XB4Y","Collector",1,171,"2016-05-25T15:07:37-07:00","4",2,"Stimuli/versionFstim.txt","Procedure/versionFproc.txt","Tetris",NA,"SWITCH","","SWITCH","OFF","Unrel_Restudy_L5",168,"Study","No","3","Unrel_Restudy_L5","ON","",3000,NA,NA,NA,NA,NA,NA,NA,NA
"A2HYN1BAX7XB4Y","Collector",1,172,"2016-05-25T15:07:41-07:00","4",2,"Stimuli/versionFstim.txt","Procedure/versionFproc.txt","Tetris",NA,"SNOWMAN","","SNOWMAN","OFF","Unrel_Restudy_L5",172,"Study","No","3","Unrel_Restudy_L5","ON","",3000,NA,NA,NA,NA,NA,NA,NA,NA
"A2HYN1BAX7XB4Y","Collector",1,173,"2016-05-25T15:07:45-07:00","4",2,"Stimuli/versionFstim.txt","Procedure/versionFproc.txt","Tetris",NA,"EASEL","","EASEL","OFF","Unrel_Restudy_L5",166,"Study","No","3","Unrel_Restudy_L5","ON","",3000,NA,NA,NA,NA,NA,NA,NA,NA
"A2HYN1BAX7XB4Y","Collector",1,174,"2016-05-25T15:07:50-07:00","5",2,"Stimuli/versionFstim.txt","Procedure/versionFproc.txt","Tetris",NA,"AUNT","","AUNT","OFF","Unrel_Restudy_L5",174,"Study","No","3","Unrel_Restudy_L5","ON","",3000,NA,NA,NA,NA,NA,NA,NA,NA
"A2HYN1BAX7XB4Y","Collector",1,175,"2016-05-25T15:07:54-07:00","4",2,"Stimuli/versionFstim.txt","Procedure/versionFproc.txt","Tetris",NA,"LICHEN","","LICHEN","OFF","Unrel_Restudy_L5",170,"Study","No","3","Unrel_Restudy_L5","ON","",3000,NA,NA,NA,NA,NA,NA,NA,NA
"A2HYN1BAX7XB4Y","Collector",1,176,"2016-05-25T15:07:58-07:00","4",2,"Stimuli/versionFstim.txt","Procedure/versionFproc.txt","Tetris",NA,"SHOE","","SHOE","OFF","Unrel_Restudy_L5",167,"Study","No","3","Unrel_Restudy_L5","ON","",3000,NA,NA,NA,NA,NA,NA,NA,NA
"A2HYN1BAX7XB4Y","Collector",1,177,"2016-05-25T15:08:02-07:00","4",2,"Stimuli/versionFstim.txt","Procedure/versionFproc.txt","Tetris",NA,"BROOM","","BROOM","OFF","Unrel_Restudy_L5",176,"Study","No","3","Unrel_Restudy_L5","ON","",3000,NA,NA,NA,NA,NA,NA,NA,NA
"A2HYN1BAX7XB4Y","Collector",1,178,"2016-05-25T15:08:07-07:00","5",2,"Stimuli/versionFstim.txt","Procedure/versionFproc.txt","Tetris",NA,"BAR","","BAR","OFF","Unrel_Restudy_L5",175,"Study","No","3","Unrel_Restudy_L5","ON","",3000,NA,NA,NA,NA,NA,NA,NA,NA
"A2HYN1BAX7XB4Y","Collector",1,179,"2016-05-25T15:08:11-07:00","4",2,"Stimuli/versionFstim.txt","Procedure/versionFproc.txt","Tetris",NA,"FLOUR","","FLOUR","OFF","Unrel_Restudy_L5",171,"Study","No","3","Unrel_Restudy_L5","ON","",3000,NA,NA,NA,NA,NA,NA,NA,NA
"A2HYN1BAX7XB4Y","Collector",1,180,"2016-05-25T15:08:15-07:00","4",2,"Stimuli/versionFstim.txt","Procedure/versionFproc.txt","Tetris",NA,"LANE","","LANE","OFF","Unrel_Restudy_L5",173,"Study","No","3","Unrel_Restudy_L5","ON","",3000,NA,NA,NA,NA,NA,NA,NA,NA
"A2HYN1BAX7XB4Y","Collector",1,181,"2016-05-25T15:08:21-07:00","6",2,"Stimuli/versionFstim.txt","Procedure/versionFproc.txt","Tetris",NA,"WALNUT","","WALNUT","OFF","Unrel_Restudy_L5",181,"Study","No","3","Unrel_Restudy_L5","ON","",3000,NA,NA,NA,NA,NA,NA,NA,NA
"A2HYN1BAX7XB4Y","Collector",1,182,"2016-05-25T15:08:25-07:00","4",2,"Stimuli/versionFstim.txt","Procedure/versionFproc.txt","Tetris",NA,"BEARD","","BEARD","OFF","Unrel_Restudy_L5",179,"Study","No","3","Unrel_Restudy_L5","ON","",3000,NA,NA,NA,NA,NA,NA,NA,NA
"A2HYN1BAX7XB4Y","Collector",1,183,"2016-05-25T15:08:30-07:00","5",2,"Stimuli/versionFstim.txt","Procedure/versionFproc.txt","Tetris",NA,"MOP","","MOP","OFF","Unrel_Restudy_L5",180,"Study","No","3","Unrel_Restudy_L5","ON","",3000,NA,NA,NA,NA,NA,NA,NA,NA
"A2HYN1BAX7XB4Y","Collector",1,184,"2016-05-25T15:08:34-07:00","4",2,"Stimuli/versionFstim.txt","Procedure/versionFproc.txt","Tetris",NA,"MUSKET","","MUSKET","OFF","Unrel_Restudy_L5",165,"Study","No","3","Unrel_Restudy_L5","ON","",3000,NA,NA,NA,NA,NA,NA,NA,NA
"A2HYN1BAX7XB4Y","Collector",1,185,"2016-05-25T15:08:39-07:00","5",2,"Stimuli/versionFstim.txt","Procedure/versionFproc.txt","Tetris",NA,"BISCUIT","","BISCUIT","OFF","Unrel_Restudy_L5",177,"Study","No","3","Unrel_Restudy_L5","ON","",3000,NA,NA,NA,NA,NA,NA,NA,NA
"A2HYN1BAX7XB4Y","Collector",1,186,"2016-05-25T15:08:43-07:00","4",2,"Stimuli/versionFstim.txt","Procedure/versionFproc.txt","Tetris",NA,"BOOTH","","BOOTH","OFF","Unrel_Restudy_L5",163,"Study","No","3","Unrel_Restudy_L5","ON","",3000,NA,NA,NA,NA,NA,NA,NA,NA
"A2HYN1BAX7XB4Y","Collector",1,187,"2016-05-25T15:08:48-07:00","5",2,"Stimuli/versionFstim.txt","Procedure/versionFproc.txt","Tetris",NA,"BRIGHT","","BRIGHT","OFF","Unrel_Restudy_L5",169,"Study","No","3","Unrel_Restudy_L5","ON","",3000,NA,NA,NA,NA,NA,NA,NA,NA
"A2HYN1BAX7XB4Y","Collector",1,188,"2016-05-25T15:08:52-07:00","4",2,"Stimuli/versionFstim.txt","Procedure/versionFproc.txt","Tetris",NA,"PILLOW","","PILLOW","OFF","Unrel_Restudy_L5",162,"Study","No","3","Unrel_Restudy_L5","ON","",3000,NA,NA,NA,NA,NA,NA,NA,NA
"A2HYN1BAX7XB4Y","Collector",1,189,"2016-05-25T15:08:57-07:00","5",2,"Stimuli/versionFstim.txt","Procedure/versionFproc.txt","Tetris",NA,"HORN","","HORN","OFF","Unrel_Restudy_L5",178,"Study","No","3","Unrel_Restudy_L5","ON","",3000,NA,NA,NA,NA,NA,NA,NA,NA
"A2HYN1BAX7XB4Y","Collector",1,190,"2016-05-25T15:09:02-07:00","5",2,"Stimuli/versionFstim.txt","Procedure/versionFproc.txt","Tetris",NA,"n/a","n/a","n/a","n/a","n/a",0,"Instruct","N/A","User","Restudy Instructions: You will now view this list again, but in a different order. Click the button below to begin.","OFF","",2580,NA,NA,NA,NA,NA,NA,NA,NA
"A2HYN1BAX7XB4Y","Collector",1,191,"2016-05-25T15:09:06-07:00","4",2,"Stimuli/versionFstim.txt","Procedure/versionFproc.txt","Tetris",NA,"BROOM","","BROOM","OFF","Unrel_Restudy_L5",196,"Study","No","3","Unrel_Restudy_L5","ON","",3000,NA,NA,NA,NA,NA,NA,NA,NA
"A2HYN1BAX7XB4Y","Collector",1,192,"2016-05-25T15:09:10-07:00","4",2,"Stimuli/versionFstim.txt","Procedure/versionFproc.txt","Tetris",NA,"LANE","","LANE","OFF","Unrel_Restudy_L5",193,"Study","No","3","Unrel_Restudy_L5","ON","",3000,NA,NA,NA,NA,NA,NA,NA,NA
"A2HYN1BAX7XB4Y","Collector",1,193,"2016-05-25T15:09:15-07:00","5",2,"Stimuli/versionFstim.txt","Procedure/versionFproc.txt","Tetris",NA,"SWITCH","","SWITCH","OFF","Unrel_Restudy_L5",188,"Study","No","3","Unrel_Restudy_L5","ON","",3000,NA,NA,NA,NA,NA,NA,NA,NA
"A2HYN1BAX7XB4Y","Collector",1,194,"2016-05-25T15:09:19-07:00","4",2,"Stimuli/versionFstim.txt","Procedure/versionFproc.txt","Tetris",NA,"MOP","","MOP","OFF","Unrel_Restudy_L5",200,"Study","No","3","Unrel_Restudy_L5","ON","",3000,NA,NA,NA,NA,NA,NA,NA,NA
"A2HYN1BAX7XB4Y","Collector",1,195,"2016-05-25T15:09:23-07:00","4",2,"Stimuli/versionFstim.txt","Procedure/versionFproc.txt","Tetris",NA,"PILLOW","","PILLOW","OFF","Unrel_Restudy_L5",182,"Study","No","3","Unrel_Restudy_L5","ON","",3000,NA,NA,NA,NA,NA,NA,NA,NA
"A2HYN1BAX7XB4Y","Collector",1,196,"2016-05-25T15:09:27-07:00","4",2,"Stimuli/versionFstim.txt","Procedure/versionFproc.txt","Tetris",NA,"WALNUT","","WALNUT","OFF","Unrel_Restudy_L5",201,"Study","No","3","Unrel_Restudy_L5","ON","",3000,NA,NA,NA,NA,NA,NA,NA,NA
"A2HYN1BAX7XB4Y","Collector",1,197,"2016-05-25T15:09:31-07:00","4",2,"Stimuli/versionFstim.txt","Procedure/versionFproc.txt","Tetris",NA,"HORN","","HORN","OFF","Unrel_Restudy_L5",198,"Study","No","3","Unrel_Restudy_L5","ON","",3000,NA,NA,NA,NA,NA,NA,NA,NA
"A2HYN1BAX7XB4Y","Collector",1,198,"2016-05-25T15:09:37-07:00","6",2,"Stimuli/versionFstim.txt","Procedure/versionFproc.txt","Tetris",NA,"BRIGHT","","BRIGHT","OFF","Unrel_Restudy_L5",189,"Study","No","3","Unrel_Restudy_L5","ON","",3000,NA,NA,NA,NA,NA,NA,NA,NA
"A2HYN1BAX7XB4Y","Collector",1,199,"2016-05-25T15:09:41-07:00","4",2,"Stimuli/versionFstim.txt","Procedure/versionFproc.txt","Tetris",NA,"EASEL","","EASEL","OFF","Unrel_Restudy_L5",186,"Study","No","3","Unrel_Restudy_L5","ON","",3000,NA,NA,NA,NA,NA,NA,NA,NA
"A2HYN1BAX7XB4Y","Collector",1,200,"2016-05-25T15:09:45-07:00","4",2,"Stimuli/versionFstim.txt","Procedure/versionFproc.txt","Tetris",NA,"BISCUIT","","BISCUIT","OFF","Unrel_Restudy_L5",197,"Study","No","3","Unrel_Restudy_L5","ON","",3000,NA,NA,NA,NA,NA,NA,NA,NA
"A2HYN1BAX7XB4Y","Collector",1,201,"2016-05-25T15:09:50-07:00","5",2,"Stimuli/versionFstim.txt","Procedure/versionFproc.txt","Tetris",NA,"BOOTH","","BOOTH","OFF","Unrel_Restudy_L5",183,"Study","No","3","Unrel_Restudy_L5","ON","",3000,NA,NA,NA,NA,NA,NA,NA,NA
"A2HYN1BAX7XB4Y","Collector",1,202,"2016-05-25T15:09:55-07:00","5",2,"Stimuli/versionFstim.txt","Procedure/versionFproc.txt","Tetris",NA,"MUSKET","","MUSKET","OFF","Unrel_Restudy_L5",185,"Study","No","3","Unrel_Restudy_L5","ON","",3000,NA,NA,NA,NA,NA,NA,NA,NA
"A2HYN1BAX7XB4Y","Collector",1,203,"2016-05-25T15:09:59-07:00","4",2,"Stimuli/versionFstim.txt","Procedure/versionFproc.txt","Tetris",NA,"AUNT","","AUNT","OFF","Unrel_Restudy_L5",194,"Study","No","3","Unrel_Restudy_L5","ON","",3000,NA,NA,NA,NA,NA,NA,NA,NA
"A2HYN1BAX7XB4Y","Collector",1,204,"2016-05-25T15:10:05-07:00","6",2,"Stimuli/versionFstim.txt","Procedure/versionFproc.txt","Tetris",NA,"SNOWMAN","","SNOWMAN","OFF","Unrel_Restudy_L5",192,"Study","No","3","Unrel_Restudy_L5","ON","",3000,NA,NA,NA,NA,NA,NA,NA,NA
"A2HYN1BAX7XB4Y","Collector",1,205,"2016-05-25T15:10:09-07:00","4",2,"Stimuli/versionFstim.txt","Procedure/versionFproc.txt","Tetris",NA,"BAR","","BAR","OFF","Unrel_Restudy_L5",195,"Study","No","3","Unrel_Restudy_L5","ON","",3000,NA,NA,NA,NA,NA,NA,NA,NA
"A2HYN1BAX7XB4Y","Collector",1,206,"2016-05-25T15:10:13-07:00","4",2,"Stimuli/versionFstim.txt","Procedure/versionFproc.txt","Tetris",NA,"SHOE","","SHOE","OFF","Unrel_Restudy_L5",187,"Study","No","3","Unrel_Restudy_L5","ON","",3000,NA,NA,NA,NA,NA,NA,NA,NA
"A2HYN1BAX7XB4Y","Collector",1,207,"2016-05-25T15:10:18-07:00","5",2,"Stimuli/versionFstim.txt","Procedure/versionFproc.txt","Tetris",NA,"LICHEN","","LICHEN","OFF","Unrel_Restudy_L5",190,"Study","No","3","Unrel_Restudy_L5","ON","",3000,NA,NA,NA,NA,NA,NA,NA,NA
"A2HYN1BAX7XB4Y","Collector",1,208,"2016-05-25T15:10:22-07:00","4",2,"Stimuli/versionFstim.txt","Procedure/versionFproc.txt","Tetris",NA,"BEARD","","BEARD","OFF","Unrel_Restudy_L5",199,"Study","No","3","Unrel_Restudy_L5","ON","",3000,NA,NA,NA,NA,NA,NA,NA,NA
"A2HYN1BAX7XB4Y","Collector",1,209,"2016-05-25T15:10:26-07:00","4",2,"Stimuli/versionFstim.txt","Procedure/versionFproc.txt","Tetris",NA,"ANCHOR","","ANCHOR","OFF","Unrel_Restudy_L5",184,"Study","No","3","Unrel_Restudy_L5","ON","",3000,NA,NA,NA,NA,NA,NA,NA,NA
"A2HYN1BAX7XB4Y","Collector",1,210,"2016-05-25T15:10:30-07:00","4",2,"Stimuli/versionFstim.txt","Procedure/versionFproc.txt","Tetris",NA,"FLOUR","","FLOUR","OFF","Unrel_Restudy_L5",191,"Study","No","3","Unrel_Restudy_L5","ON","",3000,NA,NA,NA,NA,NA,NA,NA,NA
"A2HYN1BAX7XB4Y","Collector",1,211,"2016-05-25T15:10:39-07:00","9",2,"Stimuli/versionFstim.txt","Procedure/versionFproc.txt","Tetris",NA,"n/a","n/a","n/a","n/a","n/a",0,"Instruct","N/A","User","Click the button below for a new list.","OFF","",7630,NA,NA,NA,NA,NA,NA,NA,NA
"A2HYN1BAX7XB4Y","Collector",1,212,"2016-05-25T15:10:43-07:00","4",2,"Stimuli/versionFstim.txt","Procedure/versionFproc.txt","Tetris",NA,"WHIPPING CREAM","","WHIPPING CREAM","OFF","AdHoc_Restudy_L6",213,"Study","No","3","AdHoc_Restudy_L6","ON","",3000,NA,NA,NA,NA,NA,NA,NA,NA
"A2HYN1BAX7XB4Y","Collector",1,213,"2016-05-25T15:10:48-07:00","5",2,"Stimuli/versionFstim.txt","Procedure/versionFproc.txt","Tetris",NA,"WHISPER","","WHISPER","OFF","AdHoc_Restudy_L6",202,"Study","No","3","AdHoc_Restudy_L6","ON","",3000,NA,NA,NA,NA,NA,NA,NA,NA
"A2HYN1BAX7XB4Y","Collector",1,214,"2016-05-25T15:10:52-07:00","4",2,"Stimuli/versionFstim.txt","Procedure/versionFproc.txt","Tetris",NA,"BREEZE","","BREEZE","OFF","AdHoc_Restudy_L6",218,"Study","No","3","AdHoc_Restudy_L6","ON","",3000,NA,NA,NA,NA,NA,NA,NA,NA
"A2HYN1BAX7XB4Y","Collector",1,215,"2016-05-25T15:10:56-07:00","4",2,"Stimuli/versionFstim.txt","Procedure/versionFproc.txt","Tetris",NA,"SNOW","","SNOW","OFF","AdHoc_Restudy_L6",210,"Study","No","3","AdHoc_Restudy_L6","ON","",3000,NA,NA,NA,NA,NA,NA,NA,NA
"A2HYN1BAX7XB4Y","Collector",1,216,"2016-05-25T15:11:01-07:00","5",2,"Stimuli/versionFstim.txt","Procedure/versionFproc.txt","Tetris",NA,"YARN","","YARN","OFF","AdHoc_Restudy_L6",221,"Study","No","3","AdHoc_Restudy_L6","ON","",3000,NA,NA,NA,NA,NA,NA,NA,NA
"A2HYN1BAX7XB4Y","Collector",1,217,"2016-05-25T15:11:06-07:00","5",2,"Stimuli/versionFstim.txt","Procedure/versionFproc.txt","Tetris",NA,"VELVET","","VELVET","OFF","AdHoc_Restudy_L6",215,"Study","No","3","AdHoc_Restudy_L6","ON","",3000,NA,NA,NA,NA,NA,NA,NA,NA
"A2HYN1BAX7XB4Y","Collector",1,218,"2016-05-25T15:11:10-07:00","4",2,"Stimuli/versionFstim.txt","Procedure/versionFproc.txt","Tetris",NA,"LINT","","LINT","OFF","AdHoc_Restudy_L6",208,"Study","No","3","AdHoc_Restudy_L6","ON","",3000,NA,NA,NA,NA,NA,NA,NA,NA
"A2HYN1BAX7XB4Y","Collector",1,219,"2016-05-25T15:11:15-07:00","5",2,"Stimuli/versionFstim.txt","Procedure/versionFproc.txt","Tetris",NA,"SILK","","SILK","OFF","AdHoc_Restudy_L6",203,"Study","No","3","AdHoc_Restudy_L6","ON","",3000,NA,NA,NA,NA,NA,NA,NA,NA
"A2HYN1BAX7XB4Y","Collector",1,220,"2016-05-25T15:11:20-07:00","5",2,"Stimuli/versionFstim.txt","Procedure/versionFproc.txt","Tetris",NA,"MARSHMALLOW","","MARSHMALLOW","OFF","AdHoc_Restudy_L6",211,"Study","No","3","AdHoc_Restudy_L6","ON","",3000,NA,NA,NA,NA,NA,NA,NA,NA
"A2HYN1BAX7XB4Y","Collector",1,221,"2016-05-25T15:11:24-07:00","4",2,"Stimuli/versionFstim.txt","Procedure/versionFproc.txt","Tetris",NA,"PUDDING","","PUDDING","OFF","AdHoc_Restudy_L6",216,"Study","No","3","AdHoc_Restudy_L6","ON","",3000,NA,NA,NA,NA,NA,NA,NA,NA
"A2HYN1BAX7XB4Y","Collector",1,222,"2016-05-25T15:11:28-07:00","4",2,"Stimuli/versionFstim.txt","Procedure/versionFproc.txt","Tetris",NA,"SUEDE","","SUEDE","OFF","AdHoc_Restudy_L6",209,"Study","No","3","AdHoc_Restudy_L6","ON","",3000,NA,NA,NA,NA,NA,NA,NA,NA
"A2HYN1BAX7XB4Y","Collector",1,223,"2016-05-25T15:11:32-07:00","4",2,"Stimuli/versionFstim.txt","Procedure/versionFproc.txt","Tetris",NA,"HAIR","","HAIR","OFF","AdHoc_Restudy_L6",217,"Study","No","3","AdHoc_Restudy_L6","ON","",3000,NA,NA,NA,NA,NA,NA,NA,NA
"A2HYN1BAX7XB4Y","Collector",1,224,"2016-05-25T15:11:37-07:00","5",2,"Stimuli/versionFstim.txt","Procedure/versionFproc.txt","Tetris",NA,"SPONGE","","SPONGE","OFF","AdHoc_Restudy_L6",207,"Study","No","3","AdHoc_Restudy_L6","ON","",3000,NA,NA,NA,NA,NA,NA,NA,NA
"A2HYN1BAX7XB4Y","Collector",1,225,"2016-05-25T15:11:41-07:00","4",2,"Stimuli/versionFstim.txt","Procedure/versionFproc.txt","Tetris",NA,"PLUSH","","PLUSH","OFF","AdHoc_Restudy_L6",214,"Study","No","3","AdHoc_Restudy_L6","ON","",3000,NA,NA,NA,NA,NA,NA,NA,NA
"A2HYN1BAX7XB4Y","Collector",1,226,"2016-05-25T15:11:45-07:00","4",2,"Stimuli/versionFstim.txt","Procedure/versionFproc.txt","Tetris",NA,"KITTEN","","KITTEN","OFF","AdHoc_Restudy_L6",212,"Study","No","3","AdHoc_Restudy_L6","ON","",3000,NA,NA,NA,NA,NA,NA,NA,NA
"A2HYN1BAX7XB4Y","Collector",1,227,"2016-05-25T15:11:50-07:00","5",2,"Stimuli/versionFstim.txt","Procedure/versionFproc.txt","Tetris",NA,"DOUGH","","DOUGH","OFF","AdHoc_Restudy_L6",219,"Study","No","3","AdHoc_Restudy_L6","ON","",3000,NA,NA,NA,NA,NA,NA,NA,NA
"A2HYN1BAX7XB4Y","Collector",1,228,"2016-05-25T15:11:54-07:00","4",2,"Stimuli/versionFstim.txt","Procedure/versionFproc.txt","Tetris",NA,"SKIN","","SKIN","OFF","AdHoc_Restudy_L6",204,"Study","No","3","AdHoc_Restudy_L6","ON","",3000,NA,NA,NA,NA,NA,NA,NA,NA
"A2HYN1BAX7XB4Y","Collector",1,229,"2016-05-25T15:11:58-07:00","4",2,"Stimuli/versionFstim.txt","Procedure/versionFproc.txt","Tetris",NA,"CASHMERE","","CASHMERE","OFF","AdHoc_Restudy_L6",220,"Study","No","3","AdHoc_Restudy_L6","ON","",3000,NA,NA,NA,NA,NA,NA,NA,NA
"A2HYN1BAX7XB4Y","Collector",1,230,"2016-05-25T15:12:02-07:00","4",2,"Stimuli/versionFstim.txt","Procedure/versionFproc.txt","Tetris",NA,"TOWEL","","TOWEL","OFF","AdHoc_Restudy_L6",206,"Study","No","3","AdHoc_Restudy_L6","ON","",3000,NA,NA,NA,NA,NA,NA,NA,NA
"A2HYN1BAX7XB4Y","Collector",1,231,"2016-05-25T15:12:07-07:00","5",2,"Stimuli/versionFstim.txt","Procedure/versionFproc.txt","Tetris",NA,"CLOUDS","","CLOUDS","OFF","AdHoc_Restudy_L6",205,"Study","No","3","AdHoc_Restudy_L6","ON","",3000,NA,NA,NA,NA,NA,NA,NA,NA
"A2HYN1BAX7XB4Y","Collector",1,232,"2016-05-25T15:12:12-07:00","5",2,"Stimuli/versionFstim.txt","Procedure/versionFproc.txt","Tetris",NA,"n/a","n/a","n/a","n/a","n/a",0,"Instruct","N/A","User","Restudy Instructions: You will now view this list again, but in a different order. Click the button below to begin.","OFF","",4410,NA,NA,NA,NA,NA,NA,NA,NA
"A2HYN1BAX7XB4Y","Collector",1,233,"2016-05-25T15:12:16-07:00","4",2,"Stimuli/versionFstim.txt","Procedure/versionFproc.txt","Tetris",NA,"SKIN","","SKIN","OFF","AdHoc_Restudy_L6",224,"Study","No","3","AdHoc_Restudy_L6","ON","",3000,NA,NA,NA,NA,NA,NA,NA,NA
"A2HYN1BAX7XB4Y","Collector",1,234,"2016-05-25T15:12:21-07:00","5",2,"Stimuli/versionFstim.txt","Procedure/versionFproc.txt","Tetris",NA,"CLOUDS","","CLOUDS","OFF","AdHoc_Restudy_L6",225,"Study","No","3","AdHoc_Restudy_L6","ON","",3000,NA,NA,NA,NA,NA,NA,NA,NA
"A2HYN1BAX7XB4Y","Collector",1,235,"2016-05-25T15:12:25-07:00","4",2,"Stimuli/versionFstim.txt","Procedure/versionFproc.txt","Tetris",NA,"YARN","","YARN","OFF","AdHoc_Restudy_L6",241,"Study","No","3","AdHoc_Restudy_L6","ON","",3000,NA,NA,NA,NA,NA,NA,NA,NA
"A2HYN1BAX7XB4Y","Collector",1,236,"2016-05-25T15:12:30-07:00","5",2,"Stimuli/versionFstim.txt","Procedure/versionFproc.txt","Tetris",NA,"WHIPPING CREAM","","WHIPPING CREAM","OFF","AdHoc_Restudy_L6",233,"Study","No","3","AdHoc_Restudy_L6","ON","",3000,NA,NA,NA,NA,NA,NA,NA,NA
"A2HYN1BAX7XB4Y","Collector",1,237,"2016-05-25T15:12:34-07:00","4",2,"Stimuli/versionFstim.txt","Procedure/versionFproc.txt","Tetris",NA,"CASHMERE","","CASHMERE","OFF","AdHoc_Restudy_L6",240,"Study","No","3","AdHoc_Restudy_L6","ON","",3000,NA,NA,NA,NA,NA,NA,NA,NA
"A2HYN1BAX7XB4Y","Collector",1,238,"2016-05-25T15:12:38-07:00","4",2,"Stimuli/versionFstim.txt","Procedure/versionFproc.txt","Tetris",NA,"BREEZE","","BREEZE","OFF","AdHoc_Restudy_L6",238,"Study","No","3","AdHoc_Restudy_L6","ON","",3000,NA,NA,NA,NA,NA,NA,NA,NA
"A2HYN1BAX7XB4Y","Collector",1,239,"2016-05-25T15:12:48-07:00","10",2,"Stimuli/versionFstim.txt","Procedure/versionFproc.txt","Tetris",NA,"HAIR","","HAIR","OFF","AdHoc_Restudy_L6",237,"Study","No","3","AdHoc_Restudy_L6","ON","",3000,NA,NA,NA,NA,NA,NA,NA,NA
"A2HYN1BAX7XB4Y","Collector",1,240,"2016-05-25T15:12:52-07:00","4",2,"Stimuli/versionFstim.txt","Procedure/versionFproc.txt","Tetris",NA,"WHISPER","","WHISPER","OFF","AdHoc_Restudy_L6",222,"Study","No","3","AdHoc_Restudy_L6","ON","",3000,NA,NA,NA,NA,NA,NA,NA,NA
"A2HYN1BAX7XB4Y","Collector",1,241,"2016-05-25T15:12:57-07:00","5",2,"Stimuli/versionFstim.txt","Procedure/versionFproc.txt","Tetris",NA,"MARSHMALLOW","","MARSHMALLOW","OFF","AdHoc_Restudy_L6",231,"Study","No","3","AdHoc_Restudy_L6","ON","",3000,NA,NA,NA,NA,NA,NA,NA,NA
"A2HYN1BAX7XB4Y","Collector",1,242,"2016-05-25T15:13:02-07:00","5",2,"Stimuli/versionFstim.txt","Procedure/versionFproc.txt","Tetris",NA,"PLUSH","","PLUSH","OFF","AdHoc_Restudy_L6",234,"Study","No","3","AdHoc_Restudy_L6","ON","",3000,NA,NA,NA,NA,NA,NA,NA,NA
"A2HYN1BAX7XB4Y","Collector",1,243,"2016-05-25T15:13:06-07:00","4",2,"Stimuli/versionFstim.txt","Procedure/versionFproc.txt","Tetris",NA,"DOUGH","","DOUGH","OFF","AdHoc_Restudy_L6",239,"Study","No","3","AdHoc_Restudy_L6","ON","",3000,NA,NA,NA,NA,NA,NA,NA,NA
"A2HYN1BAX7XB4Y","Collector",1,244,"2016-05-25T15:13:10-07:00","4",2,"Stimuli/versionFstim.txt","Procedure/versionFproc.txt","Tetris",NA,"PUDDING","","PUDDING","OFF","AdHoc_Restudy_L6",236,"Study","No","3","AdHoc_Restudy_L6","ON","",3000,NA,NA,NA,NA,NA,NA,NA,NA
"A2HYN1BAX7XB4Y","Collector",1,245,"2016-05-25T15:13:14-07:00","4",2,"Stimuli/versionFstim.txt","Procedure/versionFproc.txt","Tetris",NA,"LINT","","LINT","OFF","AdHoc_Restudy_L6",228,"Study","No","3","AdHoc_Restudy_L6","ON","",3000,NA,NA,NA,NA,NA,NA,NA,NA
"A2HYN1BAX7XB4Y","Collector",1,246,"2016-05-25T15:13:19-07:00","5",2,"Stimuli/versionFstim.txt","Procedure/versionFproc.txt","Tetris",NA,"SPONGE","","SPONGE","OFF","AdHoc_Restudy_L6",227,"Study","No","3","AdHoc_Restudy_L6","ON","",3000,NA,NA,NA,NA,NA,NA,NA,NA
"A2HYN1BAX7XB4Y","Collector",1,247,"2016-05-25T15:13:23-07:00","4",2,"Stimuli/versionFstim.txt","Procedure/versionFproc.txt","Tetris",NA,"SUEDE","","SUEDE","OFF","AdHoc_Restudy_L6",229,"Study","No","3","AdHoc_Restudy_L6","ON","",3000,NA,NA,NA,NA,NA,NA,NA,NA
"A2HYN1BAX7XB4Y","Collector",1,248,"2016-05-25T15:13:27-07:00","4",2,"Stimuli/versionFstim.txt","Procedure/versionFproc.txt","Tetris",NA,"SNOW","","SNOW","OFF","AdHoc_Restudy_L6",230,"Study","No","3","AdHoc_Restudy_L6","ON","",3000,NA,NA,NA,NA,NA,NA,NA,NA
"A2HYN1BAX7XB4Y","Collector",1,249,"2016-05-25T15:13:31-07:00","4",2,"Stimuli/versionFstim.txt","Procedure/versionFproc.txt","Tetris",NA,"VELVET","","VELVET","OFF","AdHoc_Restudy_L6",235,"Study","No","3","AdHoc_Restudy_L6","ON","",3000,NA,NA,NA,NA,NA,NA,NA,NA
"A2HYN1BAX7XB4Y","Collector",1,250,"2016-05-25T15:13:35-07:00","4",2,"Stimuli/versionFstim.txt","Procedure/versionFproc.txt","Tetris",NA,"KITTEN","","KITTEN","OFF","AdHoc_Restudy_L6",232,"Study","No","3","AdHoc_Restudy_L6","ON","",3000,NA,NA,NA,NA,NA,NA,NA,NA
"A2HYN1BAX7XB4Y","Collector",1,251,"2016-05-25T15:13:40-07:00","5",2,"Stimuli/versionFstim.txt","Procedure/versionFproc.txt","Tetris",NA,"SILK","","SILK","OFF","AdHoc_Restudy_L6",223,"Study","No","3","AdHoc_Restudy_L6","ON","",3000,NA,NA,NA,NA,NA,NA,NA,NA
"A2HYN1BAX7XB4Y","Collector",1,252,"2016-05-25T15:13:44-07:00","4",2,"Stimuli/versionFstim.txt","Procedure/versionFproc.txt","Tetris",NA,"TOWEL","","TOWEL","OFF","AdHoc_Restudy_L6",226,"Study","No","3","AdHoc_Restudy_L6","ON","",3000,NA,NA,NA,NA,NA,NA,NA,NA
"A2HYN1BAX7XB4Y","Collector",1,253,"2016-05-25T15:14:06-07:00","22",2,"Stimuli/versionFstim.txt","Procedure/versionFproc.txt","Tetris",NA,"n/a","n/a","n/a","n/a","n/a",0,"Instruct","N/A","User","Now you will complete a recognition memory test based on the last 6 lists that you have studied. A word will be displayed on the computer screen and you are to decide whether the word was studied in the last 6 lists. If the word was studied, click the yes button. If the word was not studied, click the no button. Respond as quickly as possible without compromising accuracy.","OFF","",21010,NA,NA,NA,NA,NA,NA,NA,NA
"A2HYN1BAX7XB4Y","Collector",1,254,"2016-05-25T15:14:10-07:00","4",2,"Stimuli/versionFstim.txt","Procedure/versionFproc.txt","Tetris",NA,"n/a","n/a","n/a","n/a","n/a",0,"Instruct","N/A","User","Click the button below to begin the test.","OFF","",1740,NA,NA,NA,NA,NA,NA,NA,NA
"A2HYN1BAX7XB4Y","Collector",1,255,"2016-05-25T15:14:12-07:00","2",2,"Stimuli/versionFstim.txt","Procedure/versionFproc.txt","Tetris",NA,"NECKLACE","","NECKLACE","OFF","CI_AdHoc_Restudy",401,"seqrec","No","User","RGN Test","ON","No",1500,NA,NA,NA,NA,NA,NA,NA,NA
"A2HYN1BAX7XB4Y","Collector",1,256,"2016-05-25T15:14:15-07:00","3",2,"Stimuli/versionFstim.txt","Procedure/versionFproc.txt","Tetris",NA,"EAGLE","","EAGLE","OFF","NPLI_Cat_Restudy",282,"seqrec","No","User","RGN Test","ON","No",1140,NA,NA,NA,NA,NA,NA,NA,NA
"A2HYN1BAX7XB4Y","Collector",1,257,"2016-05-25T15:14:17-07:00","2",2,"Stimuli/versionFstim.txt","Procedure/versionFproc.txt","Tetris",NA,"DOVE","","DOVE","OFF","NPLI_Cat_Restudy",289,"seqrec","No","User","RGN Test","ON","No",860,NA,NA,NA,NA,NA,NA,NA,NA
"A2HYN1BAX7XB4Y","Collector",1,258,"2016-05-25T15:14:22-07:00","5",2,"Stimuli/versionFstim.txt","Procedure/versionFproc.txt","Tetris",NA,"FLASK","","FLASK","OFF","NPLI_Unrel_Restudy",262,"seqrec","No","User","RGN Test","ON","No",790,NA,NA,NA,NA,NA,NA,NA,NA
"A2HYN1BAX7XB4Y","Collector",1,259,"2016-05-25T15:14:24-07:00","2",2,"Stimuli/versionFstim.txt","Procedure/versionFproc.txt","Tetris",NA,"DRESS","","DRESS","OFF","CI_AdHoc_Restudy",399,"seqrec","No","User","RGN Test","ON","No",1250,NA,NA,NA,NA,NA,NA,NA,NA
"A2HYN1BAX7XB4Y","Collector",1,260,"2016-05-25T15:14:26-07:00","2",2,"Stimuli/versionFstim.txt","Procedure/versionFproc.txt","Tetris",NA,"CANARY","","CANARY","OFF","NPCI_Cat_Restudy",324,"seqrec","No","User","RGN Test","ON","No",860,NA,NA,NA,NA,NA,NA,NA,NA
"A2HYN1BAX7XB4Y","Collector",1,261,"2016-05-25T15:14:29-07:00","3",2,"Stimuli/versionFstim.txt","Procedure/versionFproc.txt","Tetris",NA,"LANE","","LANE","OFF","LI_Unrel_Restudy",377,"seqrec","No","User","RGN Test","ON","Yes",1540,NA,NA,NA,NA,NA,NA,NA,NA
"A2HYN1BAX7XB4Y","Collector",1,262,"2016-05-25T15:14:31-07:00","2",2,"Stimuli/versionFstim.txt","Procedure/versionFproc.txt","Tetris",NA,"SPONGE","","SPONGE","OFF","LI_AdHoc_Restudy",384,"seqrec","No","User","RGN Test","ON","Yes",720,NA,NA,NA,NA,NA,NA,NA,NA
"A2HYN1BAX7XB4Y","Collector",1,263,"2016-05-25T15:14:33-07:00","2",2,"Stimuli/versionFstim.txt","Procedure/versionFproc.txt","Tetris",NA,"EYE SHADOW","","EYE SHADOW","OFF","LI_AdHoc_Restudy",343,"seqrec","No","User","RGN Test","ON","Yes",1250,NA,NA,NA,NA,NA,NA,NA,NA
"A2HYN1BAX7XB4Y","Collector",1,264,"2016-05-25T15:14:35-07:00","2",2,"Stimuli/versionFstim.txt","Procedure/versionFproc.txt","Tetris",NA,"PEARLS","","PEARLS","OFF","LI_AdHoc_Restudy",350,"seqrec","No","User","RGN Test","ON","Yes",840,NA,NA,NA,NA,NA,NA,NA,NA
"A2HYN1BAX7XB4Y","Collector",1,265,"2016-05-25T15:14:38-07:00","3",2,"Stimuli/versionFstim.txt","Procedure/versionFproc.txt","Tetris",NA,"UNION","","UNION","OFF","NPCI_Unrel_Restudy",315,"seqrec","No","User","RGN Test","ON","No",1630,NA,NA,NA,NA,NA,NA,NA,NA
"A2HYN1BAX7XB4Y","Collector",1,266,"2016-05-25T15:14:40-07:00","2",2,"Stimuli/versionFstim.txt","Procedure/versionFproc.txt","Tetris",NA,"RUGBY","","RUGBY","OFF","NPLI_Cat_Restudy",250,"seqrec","No","User","RGN Test","ON","No",820,NA,NA,NA,NA,NA,NA,NA,NA
"A2HYN1BAX7XB4Y","Collector",1,267,"2016-05-25T15:14:43-07:00","3",2,"Stimuli/versionFstim.txt","Procedure/versionFproc.txt","Tetris",NA,"MOUTH","","MOUTH","OFF","LI_Cat_Restudy",334,"seqrec","No","User","RGN Test","ON","Yes",1620,NA,NA,NA,NA,NA,NA,NA,NA
"A2HYN1BAX7XB4Y","Collector",1,268,"2016-05-25T15:14:45-07:00","2",2,"Stimuli/versionFstim.txt","Procedure/versionFproc.txt","Tetris",NA,"BISCUIT","","BISCUIT","OFF","LI_Unrel_Restudy",379,"seqrec","No","User","RGN Test","ON","Yes",750,NA,NA,NA,NA,NA,NA,NA,NA
"A2HYN1BAX7XB4Y","Collector",1,269,"2016-05-25T15:14:47-07:00","2",2,"Stimuli/versionFstim.txt","Procedure/versionFproc.txt","Tetris",NA,"FLOUR","","FLOUR","OFF","LI_Unrel_Restudy",376,"seqrec","No","User","RGN Test","ON","Yes",820,NA,NA,NA,NA,NA,NA,NA,NA
"A2HYN1BAX7XB4Y","Collector",1,270,"2016-05-25T15:14:50-07:00","3",2,"Stimuli/versionFstim.txt","Procedure/versionFproc.txt","Tetris",NA,"CHEEK","","CHEEK","OFF","LI_Unrel_Restudy",368,"seqrec","No","User","RGN Test","ON","Yes",850,NA,NA,NA,NA,NA,NA,NA,NA
"A2HYN1BAX7XB4Y","Collector",1,271,"2016-05-25T15:14:53-07:00","3",2,"Stimuli/versionFstim.txt","Procedure/versionFproc.txt","Tetris",NA,"BLANKET","","BLANKET","OFF","CI_AdHoc_Restudy",420,"seqrec","No","User","RGN Test","ON","No",1690,NA,NA,NA,NA,NA,NA,NA,NA
"A2HYN1BAX7XB4Y","Collector",1,272,"2016-05-25T15:14:56-07:00","3",2,"Stimuli/versionFstim.txt","Procedure/versionFproc.txt","Tetris",NA,"FEATHERS","","FEATHERS","OFF","CI_AdHoc_Restudy",421,"seqrec","No","User","RGN Test","ON","No",1280,NA,NA,NA,NA,NA,NA,NA,NA
"A2HYN1BAX7XB4Y","Collector",1,273,"2016-05-25T15:15:00-07:00","4",2,"Stimuli/versionFstim.txt","Procedure/versionFproc.txt","Tetris",NA,"BEEHIVE","","BEEHIVE","OFF","NPLI_Unrel_Restudy",278,"seqrec","No","User","RGN Test","ON","No",1600,NA,NA,NA,NA,NA,NA,NA,NA
"A2HYN1BAX7XB4Y","Collector",1,274,"2016-05-25T15:15:02-07:00","2",2,"Stimuli/versionFstim.txt","Procedure/versionFproc.txt","Tetris",NA,"CHOCOLATE","","CHOCOLATE","OFF","CI_Unrel_Restudy",409,"seqrec","No","User","RGN Test","ON","No",1410,NA,NA,NA,NA,NA,NA,NA,NA
"A2HYN1BAX7XB4Y","Collector",1,275,"2016-05-25T15:15:04-07:00","2",2,"Stimuli/versionFstim.txt","Procedure/versionFproc.txt","Tetris",NA,"GOLDFISH","","GOLDFISH","OFF","CI_Unrel_Restudy",415,"seqrec","No","User","RGN Test","ON","No",920,NA,NA,NA,NA,NA,NA,NA,NA
"A2HYN1BAX7XB4Y","Collector",1,276,"2016-05-25T15:15:08-07:00","4",2,"Stimuli/versionFstim.txt","Procedure/versionFproc.txt","Tetris",NA,"MICROWAVE","","MICROWAVE","OFF","NPCI_AdHoc_Restudy",311,"seqrec","No","User","RGN Test","ON","No",1570,NA,NA,NA,NA,NA,NA,NA,NA
"A2HYN1BAX7XB4Y","Collector",1,277,"2016-05-25T15:15:11-07:00","3",2,"Stimuli/versionFstim.txt","Procedure/versionFproc.txt","Tetris",NA,"BADMINTON","","BADMINTON","OFF","NPLI_Cat_Restudy",244,"seqrec","No","User","RGN Test","ON","No",900,NA,NA,NA,NA,NA,NA,NA,NA
"A2HYN1BAX7XB4Y","Collector",1,278,"2016-05-25T15:15:14-07:00","3",2,"Stimuli/versionFstim.txt","Procedure/versionFproc.txt","Tetris",NA,"HAWK","","HAWK","OFF","NPCI_Cat_Restudy",325,"seqrec","No","User","RGN Test","ON","No",1090,NA,NA,NA,NA,NA,NA,NA,NA
"A2HYN1BAX7XB4Y","Collector",1,279,"2016-05-25T15:15:16-07:00","2",2,"Stimuli/versionFstim.txt","Procedure/versionFproc.txt","Tetris",NA,"REFRIGERATOR","","REFRIGERATOR","OFF","NPCI_AdHoc_Restudy",308,"seqrec","No","User","RGN Test","ON","No",860,NA,NA,NA,NA,NA,NA,NA,NA
"A2HYN1BAX7XB4Y","Collector",1,280,"2016-05-25T15:15:19-07:00","3",2,"Stimuli/versionFstim.txt","Procedure/versionFproc.txt","Tetris",NA,"KIT","","KIT","OFF","NPCI_Unrel_Restudy",321,"seqrec","No","User","RGN Test","ON","Yes",1110,NA,NA,NA,NA,NA,NA,NA,NA
"A2HYN1BAX7XB4Y","Collector",1,281,"2016-05-25T15:15:20-07:00","1",2,"Stimuli/versionFstim.txt","Procedure/versionFproc.txt","Tetris",NA,"HAT","","HAT","OFF","LI_AdHoc_Restudy",342,"seqrec","No","User","RGN Test","ON","Yes",680,NA,NA,NA,NA,NA,NA,NA,NA
"A2HYN1BAX7XB4Y","Collector",1,282,"2016-05-25T15:15:23-07:00","3",2,"Stimuli/versionFstim.txt","Procedure/versionFproc.txt","Tetris",NA,"BED","","BED","OFF","CI_Cat_Restudy",406,"seqrec","No","User","RGN Test","ON","No",1240,NA,NA,NA,NA,NA,NA,NA,NA
"A2HYN1BAX7XB4Y","Collector",1,283,"2016-05-25T15:15:25-07:00","2",2,"Stimuli/versionFstim.txt","Procedure/versionFproc.txt","Tetris",NA,"SKILLET","","SKILLET","OFF","NPLI_AdHoc_Restudy",258,"seqrec","No","User","RGN Test","ON","No",1190,NA,NA,NA,NA,NA,NA,NA,NA
"A2HYN1BAX7XB4Y","Collector",1,284,"2016-05-25T15:15:27-07:00","2",2,"Stimuli/versionFstim.txt","Procedure/versionFproc.txt","Tetris",NA,"LAMP","","LAMP","OFF","CI_Cat_Restudy",403,"seqrec","No","User","RGN Test","ON","No",890,NA,NA,NA,NA,NA,NA,NA,NA
"A2HYN1BAX7XB4Y","Collector",1,285,"2016-05-25T15:15:29-07:00","2",2,"Stimuli/versionFstim.txt","Procedure/versionFproc.txt","Tetris",NA,"TOOTH","","TOOTH","OFF","LI_Cat_Restudy",339,"seqrec","No","User","RGN Test","ON","Yes",1040,NA,NA,NA,NA,NA,NA,NA,NA
"A2HYN1BAX7XB4Y","Collector",1,286,"2016-05-25T15:15:31-07:00","2",2,"Stimuli/versionFstim.txt","Procedure/versionFproc.txt","Tetris",NA,"PIT","","PIT","OFF","NPLI_Unrel_Restudy",265,"seqrec","No","User","RGN Test","ON","No",1130,NA,NA,NA,NA,NA,NA,NA,NA
"A2HYN1BAX7XB4Y","Collector",1,287,"2016-05-25T15:15:33-07:00","2",2,"Stimuli/versionFstim.txt","Procedure/versionFproc.txt","Tetris",NA,"DAIRY","","DAIRY","OFF","LI_Unrel_Restudy",367,"seqrec","No","User","RGN Test","ON","Yes",1010,NA,NA,NA,NA,NA,NA,NA,NA
"A2HYN1BAX7XB4Y","Collector",1,288,"2016-05-25T15:15:37-07:00","4",2,"Stimuli/versionFstim.txt","Procedure/versionFproc.txt","Tetris",NA,"BOOK","","BOOK","OFF","NPCI_AdHoc_Restudy",328,"seqrec","No","User","RGN Test","ON","No",2170,NA,NA,NA,NA,NA,NA,NA,NA
"A2HYN1BAX7XB4Y","Collector",1,289,"2016-05-25T15:15:39-07:00","2",2,"Stimuli/versionFstim.txt","Procedure/versionFproc.txt","Tetris",NA,"SUEDE","","SUEDE","OFF","LI_AdHoc_Restudy",385,"seqrec","No","User","RGN Test","ON","Yes",880,NA,NA,NA,NA,NA,NA,NA,NA
"A2HYN1BAX7XB4Y","Collector",1,290,"2016-05-25T15:15:41-07:00","2",2,"Stimuli/versionFstim.txt","Procedure/versionFproc.txt","Tetris",NA,"EAR","","EAR","OFF","CI_Cat_Restudy",395,"seqrec","No","User","RGN Test","ON","No",1280,NA,NA,NA,NA,NA,NA,NA,NA
"A2HYN1BAX7XB4Y","Collector",1,291,"2016-05-25T15:15:43-07:00","2",2,"Stimuli/versionFstim.txt","Procedure/versionFproc.txt","Tetris",NA,"JEANS","","JEANS","OFF","LI_AdHoc_Restudy",344,"seqrec","No","User","RGN Test","ON","Yes",960,NA,NA,NA,NA,NA,NA,NA,NA
"A2HYN1BAX7XB4Y","Collector",1,292,"2016-05-25T15:15:46-07:00","3",2,"Stimuli/versionFstim.txt","Procedure/versionFproc.txt","Tetris",NA,"VELVET","","VELVET","OFF","LI_AdHoc_Restudy",388,"seqrec","No","User","RGN Test","ON","Yes",800,NA,NA,NA,NA,NA,NA,NA,NA
"A2HYN1BAX7XB4Y","Collector",1,293,"2016-05-25T15:15:49-07:00","3",2,"Stimuli/versionFstim.txt","Procedure/versionFproc.txt","Tetris",NA,"STOVE","","STOVE","OFF","NPLI_AdHoc_Restudy",261,"seqrec","No","User","RGN Test","ON","No",1420,NA,NA,NA,NA,NA,NA,NA,NA
"A2HYN1BAX7XB4Y","Collector",1,294,"2016-05-25T15:15:51-07:00","2",2,"Stimuli/versionFstim.txt","Procedure/versionFproc.txt","Tetris",NA,"ROBIN","","ROBIN","OFF","NPCI_Cat_Restudy",326,"seqrec","No","User","RGN Test","ON","No",860,NA,NA,NA,NA,NA,NA,NA,NA
"A2HYN1BAX7XB4Y","Collector",1,295,"2016-05-25T15:15:53-07:00","2",2,"Stimuli/versionFstim.txt","Procedure/versionFproc.txt","Tetris",NA,"GOWN","","GOWN","OFF","LI_AdHoc_Restudy",348,"seqrec","No","User","RGN Test","ON","Yes",980,NA,NA,NA,NA,NA,NA,NA,NA
"A2HYN1BAX7XB4Y","Collector",1,296,"2016-05-25T15:15:55-07:00","2",2,"Stimuli/versionFstim.txt","Procedure/versionFproc.txt","Tetris",NA,"BOWL","","BOWL","OFF","NPLI_AdHoc_Restudy",254,"seqrec","No","User","RGN Test","ON","No",1000,NA,NA,NA,NA,NA,NA,NA,NA
"A2HYN1BAX7XB4Y","Collector",1,297,"2016-05-25T15:15:57-07:00","2",2,"Stimuli/versionFstim.txt","Procedure/versionFproc.txt","Tetris",NA,"BIOGRAPHY","","BIOGRAPHY","OFF","NPLI_AdHoc_Restudy",301,"seqrec","No","User","RGN Test","ON","No",1110,NA,NA,NA,NA,NA,NA,NA,NA
"A2HYN1BAX7XB4Y","Collector",1,298,"2016-05-25T15:15:59-07:00","2",2,"Stimuli/versionFstim.txt","Procedure/versionFproc.txt","Tetris",NA,"BRAIN","","BRAIN","OFF","LI_Cat_Restudy",338,"seqrec","No","User","RGN Test","ON","Yes",950,NA,NA,NA,NA,NA,NA,NA,NA
"A2HYN1BAX7XB4Y","Collector",1,299,"2016-05-25T15:16:01-07:00","2",2,"Stimuli/versionFstim.txt","Procedure/versionFproc.txt","Tetris",NA,"LEAFLET","","LEAFLET","OFF","NPLI_AdHoc_Restudy",297,"seqrec","No","User","RGN Test","ON","No",870,NA,NA,NA,NA,NA,NA,NA,NA
"A2HYN1BAX7XB4Y","Collector",1,300,"2016-05-25T15:16:05-07:00","4",2,"Stimuli/versionFstim.txt","Procedure/versionFproc.txt","Tetris",NA,"SHOE","","SHOE","OFF","LI_Unrel_Restudy",374,"seqrec","No","User","RGN Test","ON","No",2750,NA,NA,NA,NA,NA,NA,NA,NA
"A2HYN1BAX7XB4Y","Collector",1,301,"2016-05-25T15:16:07-07:00","2",2,"Stimuli/versionFstim.txt","Procedure/versionFproc.txt","Tetris",NA,"FALCON","","FALCON","OFF","NPLI_Cat_Restudy",291,"seqrec","No","User","RGN Test","ON","No",1250,NA,NA,NA,NA,NA,NA,NA,NA
"A2HYN1BAX7XB4Y","Collector",1,302,"2016-05-25T15:16:09-07:00","2",2,"Stimuli/versionFstim.txt","Procedure/versionFproc.txt","Tetris",NA,"NEWSPAPER","","NEWSPAPER","OFF","NPCI_AdHoc_Restudy",329,"seqrec","No","User","RGN Test","ON","No",680,NA,NA,NA,NA,NA,NA,NA,NA
"A2HYN1BAX7XB4Y","Collector",1,303,"2016-05-25T15:16:11-07:00","2",2,"Stimuli/versionFstim.txt","Procedure/versionFproc.txt","Tetris",NA,"FOAM","","FOAM","OFF","LI_Unrel_Restudy",363,"seqrec","No","User","RGN Test","ON","Yes",880,NA,NA,NA,NA,NA,NA,NA,NA
"A2HYN1BAX7XB4Y","Collector",1,304,"2016-05-25T15:16:13-07:00","2",2,"Stimuli/versionFstim.txt","Procedure/versionFproc.txt","Tetris",NA,"CLOAK","","CLOAK","OFF","LI_Unrel_Restudy",370,"seqrec","No","User","RGN Test","ON","Yes",980,NA,NA,NA,NA,NA,NA,NA,NA
"A2HYN1BAX7XB4Y","Collector",1,305,"2016-05-25T15:16:16-07:00","3",2,"Stimuli/versionFstim.txt","Procedure/versionFproc.txt","Tetris",NA,"SINK","","SINK","OFF","NPCI_AdHoc_Restudy",310,"seqrec","No","User","RGN Test","ON","No",1350,NA,NA,NA,NA,NA,NA,NA,NA
"A2HYN1BAX7XB4Y","Collector",1,306,"2016-05-25T15:16:18-07:00","2",2,"Stimuli/versionFstim.txt","Procedure/versionFproc.txt","Tetris",NA,"SILK","","SILK","OFF","LI_AdHoc_Restudy",382,"seqrec","No","User","RGN Test","ON","No",1070,NA,NA,NA,NA,NA,NA,NA,NA
"A2HYN1BAX7XB4Y","Collector",1,307,"2016-05-25T15:16:23-07:00","5",2,"Stimuli/versionFstim.txt","Procedure/versionFproc.txt","Tetris",NA,"ARMS","","ARMS","OFF","CI_Cat_Restudy",392,"seqrec","No","User","RGN Test","ON","No",1100,NA,NA,NA,NA,NA,NA,NA,NA
"A2HYN1BAX7XB4Y","Collector",1,308,"2016-05-25T15:16:25-07:00","2",2,"Stimuli/versionFstim.txt","Procedure/versionFproc.txt","Tetris",NA,"CHINA CLOSET","","CHINA CLOSET","OFF","LI_Cat_Restudy",360,"seqrec","No","User","RGN Test","ON","Yes",1150,NA,NA,NA,NA,NA,NA,NA,NA
"A2HYN1BAX7XB4Y","Collector",1,309,"2016-05-25T15:16:27-07:00","2",2,"Stimuli/versionFstim.txt","Procedure/versionFproc.txt","Tetris",NA,"END TABLE","","END TABLE","OFF","LI_Cat_Restudy",357,"seqrec","No","User","RGN Test","ON","Yes",790,NA,NA,NA,NA,NA,NA,NA,NA
"A2HYN1BAX7XB4Y","Collector",1,310,"2016-05-25T15:16:30-07:00","3",2,"Stimuli/versionFstim.txt","Procedure/versionFproc.txt","Tetris",NA,"CATHEDRAL","","CATHEDRAL","OFF","CI_Unrel_Restudy",410,"seqrec","No","User","RGN Test","ON","No",1010,NA,NA,NA,NA,NA,NA,NA,NA
"A2HYN1BAX7XB4Y","Collector",1,311,"2016-05-25T15:16:35-07:00","5",2,"Stimuli/versionFstim.txt","Procedure/versionFproc.txt","Tetris",NA,"LAND","","LAND","OFF","LI_Unrel_Restudy",364,"seqrec","No","User","RGN Test","ON","Yes",1700,NA,NA,NA,NA,NA,NA,NA,NA
"A2HYN1BAX7XB4Y","Collector",1,312,"2016-05-25T15:16:37-07:00","2",2,"Stimuli/versionFstim.txt","Procedure/versionFproc.txt","Tetris",NA,"FLAME","","FLAME","OFF","CI_Unrel_Restudy",416,"seqrec","No","User","RGN Test","ON","No",1220,NA,NA,NA,NA,NA,NA,NA,NA
"A2HYN1BAX7XB4Y","Collector",1,313,"2016-05-25T15:16:39-07:00","2",2,"Stimuli/versionFstim.txt","Procedure/versionFproc.txt","Tetris",NA,"PIANO","","PIANO","OFF","LI_Cat_Restudy",356,"seqrec","No","User","RGN Test","ON","Yes",940,NA,NA,NA,NA,NA,NA,NA,NA
"A2HYN1BAX7XB4Y","Collector",1,314,"2016-05-25T15:16:41-07:00","2",2,"Stimuli/versionFstim.txt","Procedure/versionFproc.txt","Tetris",NA,"PAPER","","PAPER","OFF","NPLI_AdHoc_Restudy",292,"seqrec","No","User","RGN Test","ON","No",900,NA,NA,NA,NA,NA,NA,NA,NA
"A2HYN1BAX7XB4Y","Collector",1,315,"2016-05-25T15:16:43-07:00","2",2,"Stimuli/versionFstim.txt","Procedure/versionFproc.txt","Tetris",NA,"POLO","","POLO","OFF","NPLI_Cat_Restudy",249,"seqrec","No","User","RGN Test","ON","No",750,NA,NA,NA,NA,NA,NA,NA,NA
"A2HYN1BAX7XB4Y","Collector",1,316,"2016-05-25T15:16:45-07:00","2",2,"Stimuli/versionFstim.txt","Procedure/versionFproc.txt","Tetris",NA,"OWL","","OWL","OFF","NPLI_Cat_Restudy",290,"seqrec","No","User","RGN Test","ON","No",720,NA,NA,NA,NA,NA,NA,NA,NA
"A2HYN1BAX7XB4Y","Collector",1,317,"2016-05-25T15:16:47-07:00","2",2,"Stimuli/versionFstim.txt","Procedure/versionFproc.txt","Tetris",NA,"YARN","","YARN","OFF","LI_AdHoc_Restudy",391,"seqrec","No","User","RGN Test","ON","Yes",1110,NA,NA,NA,NA,NA,NA,NA,NA
"A2HYN1BAX7XB4Y","Collector",1,318,"2016-05-25T15:16:49-07:00","2",2,"Stimuli/versionFstim.txt","Procedure/versionFproc.txt","Tetris",NA,"HAIR","","HAIR","OFF","LI_AdHoc_Restudy",389,"seqrec","No","User","RGN Test","ON","Yes",720,NA,NA,NA,NA,NA,NA,NA,NA
"A2HYN1BAX7XB4Y","Collector",1,319,"2016-05-25T15:16:51-07:00","2",2,"Stimuli/versionFstim.txt","Procedure/versionFproc.txt","Tetris",NA,"FOOTBALL","","FOOTBALL","OFF","NPCI_Cat_Restudy",302,"seqrec","No","User","RGN Test","ON","No",1200,NA,NA,NA,NA,NA,NA,NA,NA
"A2HYN1BAX7XB4Y","Collector",1,320,"2016-05-25T15:16:53-07:00","2",2,"Stimuli/versionFstim.txt","Procedure/versionFproc.txt","Tetris",NA,"CONTEST","","CONTEST","OFF","CI_Unrel_Restudy",408,"seqrec","No","User","RGN Test","ON","No",980,NA,NA,NA,NA,NA,NA,NA,NA
"A2HYN1BAX7XB4Y","Collector",1,321,"2016-05-25T15:16:55-07:00","2",2,"Stimuli/versionFstim.txt","Procedure/versionFproc.txt","Tetris",NA,"CHAISE","","CHAISE","OFF","LI_Cat_Restudy",359,"seqrec","No","User","RGN Test","ON","Yes",1020,NA,NA,NA,NA,NA,NA,NA,NA
"A2HYN1BAX7XB4Y","Collector",1,322,"2016-05-25T15:17:00-07:00","5",2,"Stimuli/versionFstim.txt","Procedure/versionFproc.txt","Tetris",NA,"SWALLOW","","SWALLOW","OFF","NPLI_Cat_Restudy",288,"seqrec","No","User","RGN Test","ON","No",3580,NA,NA,NA,NA,NA,NA,NA,NA
"A2HYN1BAX7XB4Y","Collector",1,323,"2016-05-25T15:17:02-07:00","2",2,"Stimuli/versionFstim.txt","Procedure/versionFproc.txt","Tetris",NA,"TRICYCLE","","TRICYCLE","OFF","NPLI_Unrel_Restudy",276,"seqrec","No","User","RGN Test","ON","No",820,NA,NA,NA,NA,NA,NA,NA,NA
"A2HYN1BAX7XB4Y","Collector",1,324,"2016-05-25T15:17:04-07:00","2",2,"Stimuli/versionFstim.txt","Procedure/versionFproc.txt","Tetris",NA,"STOOL","","STOOL","OFF","CI_Cat_Restudy",405,"seqrec","No","User","RGN Test","ON","No",880,NA,NA,NA,NA,NA,NA,NA,NA
"A2HYN1BAX7XB4Y","Collector",1,325,"2016-05-25T15:17:07-07:00","3",2,"Stimuli/versionFstim.txt","Procedure/versionFproc.txt","Tetris",NA,"GOLF","","GOLF","OFF","NPLI_Cat_Restudy",242,"seqrec","No","User","RGN Test","ON","No",1780,NA,NA,NA,NA,NA,NA,NA,NA
"A2HYN1BAX7XB4Y","Collector",1,326,"2016-05-25T15:17:11-07:00","4",2,"Stimuli/versionFstim.txt","Procedure/versionFproc.txt","Tetris",NA,"COTTON","","COTTON","OFF","CI_AdHoc_Restudy",419,"seqrec","No","User","RGN Test","ON","No",1750,NA,NA,NA,NA,NA,NA,NA,NA
"A2HYN1BAX7XB4Y","Collector",1,327,"2016-05-25T15:17:13-07:00","2",2,"Stimuli/versionFstim.txt","Procedure/versionFproc.txt","Tetris",NA,"WREN","","WREN","OFF","NPLI_Cat_Restudy",284,"seqrec","No","User","RGN Test","ON","No",700,NA,NA,NA,NA,NA,NA,NA,NA
"A2HYN1BAX7XB4Y","Collector",1,328,"2016-05-25T15:17:14-07:00","1",2,"Stimuli/versionFstim.txt","Procedure/versionFproc.txt","Tetris",NA,"MAGAZINE","","MAGAZINE","OFF","NPCI_AdHoc_Restudy",327,"seqrec","No","User","RGN Test","ON","No",720,NA,NA,NA,NA,NA,NA,NA,NA
"A2HYN1BAX7XB4Y","Collector",1,329,"2016-05-25T15:17:17-07:00","3",2,"Stimuli/versionFstim.txt","Procedure/versionFproc.txt","Tetris",NA,"COT","","COT","OFF","LI_Cat_Restudy",358,"seqrec","No","User","RGN Test","ON","Yes",1250,NA,NA,NA,NA,NA,NA,NA,NA
"A2HYN1BAX7XB4Y","Collector",1,330,"2016-05-25T15:17:19-07:00","2",2,"Stimuli/versionFstim.txt","Procedure/versionFproc.txt","Tetris",NA,"FORK","","FORK","OFF","NPLI_AdHoc_Restudy",257,"seqrec","No","User","RGN Test","ON","No",930,NA,NA,NA,NA,NA,NA,NA,NA
"A2HYN1BAX7XB4Y","Collector",1,331,"2016-05-25T15:17:21-07:00","2",2,"Stimuli/versionFstim.txt","Procedure/versionFproc.txt","Tetris",NA,"KERNEL","","KERNEL","OFF","CI_Unrel_Restudy",412,"seqrec","No","User","RGN Test","ON","No",1160,NA,NA,NA,NA,NA,NA,NA,NA
"A2HYN1BAX7XB4Y","Collector",1,332,"2016-05-25T15:17:25-07:00","4",2,"Stimuli/versionFstim.txt","Procedure/versionFproc.txt","Tetris",NA,"SLIP","","SLIP","OFF","LI_AdHoc_Restudy",347,"seqrec","No","User","RGN Test","ON","Yes",2500,NA,NA,NA,NA,NA,NA,NA,NA
"A2HYN1BAX7XB4Y","Collector",1,333,"2016-05-25T15:17:27-07:00","2",2,"Stimuli/versionFstim.txt","Procedure/versionFproc.txt","Tetris",NA,"FINGER","","FINGER","OFF","LI_Cat_Restudy",333,"seqrec","No","User","RGN Test","ON","Yes",950,NA,NA,NA,NA,NA,NA,NA,NA
"A2HYN1BAX7XB4Y","Collector",1,334,"2016-05-25T15:17:29-07:00","2",2,"Stimuli/versionFstim.txt","Procedure/versionFproc.txt","Tetris",NA,"BLUE JAY","","BLUE JAY","OFF","NPCI_Cat_Restudy",323,"seqrec","No","User","RGN Test","ON","No",1010,NA,NA,NA,NA,NA,NA,NA,NA
"A2HYN1BAX7XB4Y","Collector",1,335,"2016-05-25T15:17:32-07:00","3",2,"Stimuli/versionFstim.txt","Procedure/versionFproc.txt","Tetris",NA,"UNCLE","","UNCLE","OFF","NPCI_Unrel_Restudy",317,"seqrec","No","User","RGN Test","ON","No",980,NA,NA,NA,NA,NA,NA,NA,NA
"A2HYN1BAX7XB4Y","Collector",1,336,"2016-05-25T15:17:35-07:00","3",2,"Stimuli/versionFstim.txt","Procedure/versionFproc.txt","Tetris",NA,"MIST","","MIST","OFF","LI_Unrel_Restudy",371,"seqrec","No","User","RGN Test","ON","Yes",1550,NA,NA,NA,NA,NA,NA,NA,NA
"A2HYN1BAX7XB4Y","Collector",1,337,"2016-05-25T15:17:37-07:00","2",2,"Stimuli/versionFstim.txt","Procedure/versionFproc.txt","Tetris",NA,"WIRE","","WIRE","OFF","NPLI_Unrel_Restudy",263,"seqrec","No","User","RGN Test","ON","No",880,NA,NA,NA,NA,NA,NA,NA,NA
"A2HYN1BAX7XB4Y","Collector",1,338,"2016-05-25T15:17:39-07:00","2",2,"Stimuli/versionFstim.txt","Procedure/versionFproc.txt","Tetris",NA,"MAKE UP","","MAKE UP","OFF","LI_AdHoc_Restudy",349,"seqrec","No","User","RGN Test","ON","Yes",1010,NA,NA,NA,NA,NA,NA,NA,NA
"A2HYN1BAX7XB4Y","Collector",1,339,"2016-05-25T15:17:41-07:00","2",2,"Stimuli/versionFstim.txt","Procedure/versionFproc.txt","Tetris",NA,"KNOB","","KNOB","OFF","LI_Unrel_Restudy",362,"seqrec","No","User","RGN Test","ON","Yes",790,NA,NA,NA,NA,NA,NA,NA,NA
"A2HYN1BAX7XB4Y","Collector",1,340,"2016-05-25T15:17:43-07:00","2",2,"Stimuli/versionFstim.txt","Procedure/versionFproc.txt","Tetris",NA,"PERIODICAL","","PERIODICAL","OFF","NPLI_AdHoc_Restudy",296,"seqrec","No","User","RGN Test","ON","No",980,NA,NA,NA,NA,NA,NA,NA,NA
"A2HYN1BAX7XB4Y","Collector",1,341,"2016-05-25T15:17:45-07:00","2",2,"Stimuli/versionFstim.txt","Procedure/versionFproc.txt","Tetris",NA,"COFFEE TABLE","","COFFEE TABLE","OFF","LI_Cat_Restudy",354,"seqrec","No","User","RGN Test","ON","Yes",1280,NA,NA,NA,NA,NA,NA,NA,NA
"A2HYN1BAX7XB4Y","Collector",1,342,"2016-05-25T15:17:47-07:00","2",2,"Stimuli/versionFstim.txt","Procedure/versionFproc.txt","Tetris",NA,"DICTIONARY","","DICTIONARY","OFF","NPLI_AdHoc_Restudy",300,"seqrec","No","User","RGN Test","ON","Yes",1180,NA,NA,NA,NA,NA,NA,NA,NA
"A2HYN1BAX7XB4Y","Collector",1,343,"2016-05-25T15:17:50-07:00","3",2,"Stimuli/versionFstim.txt","Procedure/versionFproc.txt","Tetris",NA,"SOFTBALL","","SOFTBALL","OFF","NPLI_Cat_Restudy",248,"seqrec","No","User","RGN Test","ON","No",1300,NA,NA,NA,NA,NA,NA,NA,NA
"A2HYN1BAX7XB4Y","Collector",1,344,"2016-05-25T15:17:52-07:00","2",2,"Stimuli/versionFstim.txt","Procedure/versionFproc.txt","Tetris",NA,"PAPERBACK","","PAPERBACK","OFF","NPLI_AdHoc_Restudy",298,"seqrec","No","User","RGN Test","ON","No",1160,NA,NA,NA,NA,NA,NA,NA,NA
"A2HYN1BAX7XB4Y","Collector",1,345,"2016-05-25T15:17:54-07:00","2",2,"Stimuli/versionFstim.txt","Procedure/versionFproc.txt","Tetris",NA,"TRACK","","TRACK","OFF","NPLI_Cat_Restudy",243,"seqrec","No","User","RGN Test","ON","No",930,NA,NA,NA,NA,NA,NA,NA,NA
"A2HYN1BAX7XB4Y","Collector",1,346,"2016-05-25T15:17:56-07:00","2",2,"Stimuli/versionFstim.txt","Procedure/versionFproc.txt","Tetris",NA,"DOWN","","DOWN","OFF","CI_AdHoc_Restudy",418,"seqrec","No","User","RGN Test","ON","No",880,NA,NA,NA,NA,NA,NA,NA,NA
"A2HYN1BAX7XB4Y","Collector",1,347,"2016-05-25T15:17:58-07:00","2",2,"Stimuli/versionFstim.txt","Procedure/versionFproc.txt","Tetris",NA,"MOON","","MOON","OFF","NPCI_Unrel_Restudy",320,"seqrec","No","User","RGN Test","ON","No",740,NA,NA,NA,NA,NA,NA,NA,NA
"A2HYN1BAX7XB4Y","Collector",1,348,"2016-05-25T15:18:00-07:00","2",2,"Stimuli/versionFstim.txt","Procedure/versionFproc.txt","Tetris",NA,"SHOULDERS","","SHOULDERS","OFF","LI_Cat_Restudy",340,"seqrec","No","User","RGN Test","ON","Yes",1220,NA,NA,NA,NA,NA,NA,NA,NA
"A2HYN1BAX7XB4Y","Collector",1,349,"2016-05-25T15:18:02-07:00","2",2,"Stimuli/versionFstim.txt","Procedure/versionFproc.txt","Tetris",NA,"BRIGHT","","BRIGHT","OFF","LI_Unrel_Restudy",375,"seqrec","No","User","RGN Test","ON","Yes",870,NA,NA,NA,NA,NA,NA,NA,NA
"A2HYN1BAX7XB4Y","Collector",1,350,"2016-05-25T15:18:04-07:00","2",2,"Stimuli/versionFstim.txt","Procedure/versionFproc.txt","Tetris",NA,"TUNE","","TUNE","OFF","NPLI_Unrel_Restudy",266,"seqrec","No","User","RGN Test","ON","No",1110,NA,NA,NA,NA,NA,NA,NA,NA
"A2HYN1BAX7XB4Y","Collector",1,351,"2016-05-25T15:18:06-07:00","2",2,"Stimuli/versionFstim.txt","Procedure/versionFproc.txt","Tetris",NA,"BULLETIN","","BULLETIN","OFF","NPLI_AdHoc_Restudy",299,"seqrec","No","User","RGN Test","ON","No",830,NA,NA,NA,NA,NA,NA,NA,NA
"A2HYN1BAX7XB4Y","Collector",1,352,"2016-05-25T15:18:08-07:00","2",2,"Stimuli/versionFstim.txt","Procedure/versionFproc.txt","Tetris",NA,"OTTER","","OTTER","OFF","LI_Unrel_Restudy",365,"seqrec","No","User","RGN Test","ON","Yes",1090,NA,NA,NA,NA,NA,NA,NA,NA
"A2HYN1BAX7XB4Y","Collector",1,353,"2016-05-25T15:18:10-07:00","2",2,"Stimuli/versionFstim.txt","Procedure/versionFproc.txt","Tetris",NA,"TOASTER","","TOASTER","OFF","NPCI_AdHoc_Restudy",309,"seqrec","No","User","RGN Test","ON","No",1030,NA,NA,NA,NA,NA,NA,NA,NA
"A2HYN1BAX7XB4Y","Collector",1,354,"2016-05-25T15:18:13-07:00","3",2,"Stimuli/versionFstim.txt","Procedure/versionFproc.txt","Tetris",NA,"CRADLE","","CRADLE","OFF","LI_Cat_Restudy",352,"seqrec","No","User","RGN Test","ON","Yes",1110,NA,NA,NA,NA,NA,NA,NA,NA
"A2HYN1BAX7XB4Y","Collector",1,355,"2016-05-25T15:18:15-07:00","2",2,"Stimuli/versionFstim.txt","Procedure/versionFproc.txt","Tetris",NA,"BASKETBALL","","BASKETBALL","OFF","NPCI_Cat_Restudy",304,"seqrec","No","User","RGN Test","ON","No",960,NA,NA,NA,NA,NA,NA,NA,NA
"A2HYN1BAX7XB4Y","Collector",1,356,"2016-05-25T15:18:17-07:00","2",2,"Stimuli/versionFstim.txt","Procedure/versionFproc.txt","Tetris",NA,"BUNNY","","BUNNY","OFF","CI_AdHoc_Restudy",417,"seqrec","No","User","RGN Test","ON","No",730,NA,NA,NA,NA,NA,NA,NA,NA
"A2HYN1BAX7XB4Y","Collector",1,357,"2016-05-25T15:18:20-07:00","3",2,"Stimuli/versionFstim.txt","Procedure/versionFproc.txt","Tetris",NA,"BROOCH","","BROOCH","OFF","LI_AdHoc_Restudy",351,"seqrec","No","User","RGN Test","ON","Yes",1850,NA,NA,NA,NA,NA,NA,NA,NA
"A2HYN1BAX7XB4Y","Collector",1,358,"2016-05-25T15:18:22-07:00","2",2,"Stimuli/versionFstim.txt","Procedure/versionFproc.txt","Tetris",NA,"SEED","","SEED","OFF","NPLI_Unrel_Restudy",280,"seqrec","No","User","RGN Test","ON","No",1030,NA,NA,NA,NA,NA,NA,NA,NA
"A2HYN1BAX7XB4Y","Collector",1,359,"2016-05-25T15:18:24-07:00","2",2,"Stimuli/versionFstim.txt","Procedure/versionFproc.txt","Tetris",NA,"PARROT","","PARROT","OFF","NPLI_Cat_Restudy",285,"seqrec","No","User","RGN Test","ON","No",870,NA,NA,NA,NA,NA,NA,NA,NA
"A2HYN1BAX7XB4Y","Collector",1,360,"2016-05-25T15:18:26-07:00","2",2,"Stimuli/versionFstim.txt","Procedure/versionFproc.txt","Tetris",NA,"SOFA","","SOFA","OFF","CI_Cat_Restudy",402,"seqrec","No","User","RGN Test","ON","No",870,NA,NA,NA,NA,NA,NA,NA,NA
"A2HYN1BAX7XB4Y","Collector",1,361,"2016-05-25T15:18:28-07:00","2",2,"Stimuli/versionFstim.txt","Procedure/versionFproc.txt","Tetris",NA,"PARAKEET","","PARAKEET","OFF","NPLI_Cat_Restudy",283,"seqrec","No","User","RGN Test","ON","No",760,NA,NA,NA,NA,NA,NA,NA,NA
"A2HYN1BAX7XB4Y","Collector",1,362,"2016-05-25T15:18:30-07:00","2",2,"Stimuli/versionFstim.txt","Procedure/versionFproc.txt","Tetris",NA,"WAVE","","WAVE","OFF","NPCI_Unrel_Restudy",312,"seqrec","No","User","RGN Test","ON","No",950,NA,NA,NA,NA,NA,NA,NA,NA
"A2HYN1BAX7XB4Y","Collector",1,363,"2016-05-25T15:18:33-07:00","3",2,"Stimuli/versionFstim.txt","Procedure/versionFproc.txt","Tetris",NA,"MARSHMALLOW","","MARSHMALLOW","OFF","LI_AdHoc_Restudy",386,"seqrec","No","User","RGN Test","ON","Yes",1920,NA,NA,NA,NA,NA,NA,NA,NA
"A2HYN1BAX7XB4Y","Collector",1,364,"2016-05-25T15:18:35-07:00","2",2,"Stimuli/versionFstim.txt","Procedure/versionFproc.txt","Tetris",NA,"NECTAR","","NECTAR","OFF","LI_Unrel_Restudy",369,"seqrec","No","User","RGN Test","ON","Yes",990,NA,NA,NA,NA,NA,NA,NA,NA
"A2HYN1BAX7XB4Y","Collector",1,365,"2016-05-25T15:18:37-07:00","2",2,"Stimuli/versionFstim.txt","Procedure/versionFproc.txt","Tetris",NA,"DAVENPORT","","DAVENPORT","OFF","LI_Cat_Restudy",361,"seqrec","No","User","RGN Test","ON","Yes",1120,NA,NA,NA,NA,NA,NA,NA,NA
"A2HYN1BAX7XB4Y","Collector",1,366,"2016-05-25T15:18:40-07:00","3",2,"Stimuli/versionFstim.txt","Procedure/versionFproc.txt","Tetris",NA,"KNIFE","","KNIFE","OFF","NPLI_AdHoc_Restudy",252,"seqrec","No","User","RGN Test","ON","No",1230,NA,NA,NA,NA,NA,NA,NA,NA
"A2HYN1BAX7XB4Y","Collector",1,367,"2016-05-25T15:18:46-07:00","6",2,"Stimuli/versionFstim.txt","Procedure/versionFproc.txt","Tetris",NA,"DIGIT","","DIGIT","OFF","CI_Unrel_Restudy",407,"seqrec","No","User","RGN Test","ON","No",1760,NA,NA,NA,NA,NA,NA,NA,NA
"A2HYN1BAX7XB4Y","Collector",1,368,"2016-05-25T15:18:50-07:00","4",2,"Stimuli/versionFstim.txt","Procedure/versionFproc.txt","Tetris",NA,"ROBOT","","ROBOT","OFF","NPCI_Unrel_Restudy",313,"seqrec","No","User","RGN Test","ON","No",2050,NA,NA,NA,NA,NA,NA,NA,NA
"A2HYN1BAX7XB4Y","Collector",1,369,"2016-05-25T15:18:52-07:00","2",2,"Stimuli/versionFstim.txt","Procedure/versionFproc.txt","Tetris",NA,"OPERA","","OPERA","OFF","NPCI_Unrel_Restudy",318,"seqrec","No","User","RGN Test","ON","No",970,NA,NA,NA,NA,NA,NA,NA,NA
"A2HYN1BAX7XB4Y","Collector",1,370,"2016-05-25T15:18:54-07:00","2",2,"Stimuli/versionFstim.txt","Procedure/versionFproc.txt","Tetris",NA,"TONGUE","","TONGUE","OFF","LI_Cat_Restudy",341,"seqrec","No","User","RGN Test","ON","Yes",1150,NA,NA,NA,NA,NA,NA,NA,NA
"A2HYN1BAX7XB4Y","Collector",1,371,"2016-05-25T15:18:57-07:00","3",2,"Stimuli/versionFstim.txt","Procedure/versionFproc.txt","Tetris",NA,"OVEN","","OVEN","OFF","NPCI_AdHoc_Restudy",307,"seqrec","No","User","RGN Test","ON","No",1440,NA,NA,NA,NA,NA,NA,NA,NA
"A2HYN1BAX7XB4Y","Collector",1,372,"2016-05-25T15:18:59-07:00","2",2,"Stimuli/versionFstim.txt","Procedure/versionFproc.txt","Tetris",NA,"TENNIS","","TENNIS","OFF","NPCI_Cat_Restudy",305,"seqrec","No","User","RGN Test","ON","No",1040,NA,NA,NA,NA,NA,NA,NA,NA
"A2HYN1BAX7XB4Y","Collector",1,373,"2016-05-25T15:19:01-07:00","2",2,"Stimuli/versionFstim.txt","Procedure/versionFproc.txt","Tetris",NA,"CASSETTE","","CASSETTE","OFF","CI_Unrel_Restudy",411,"seqrec","No","User","RGN Test","ON","No",790,NA,NA,NA,NA,NA,NA,NA,NA
"A2HYN1BAX7XB4Y","Collector",1,374,"2016-05-25T15:19:02-07:00","1",2,"Stimuli/versionFstim.txt","Procedure/versionFproc.txt","Tetris",NA,"DRESSER","","DRESSER","OFF","CI_Cat_Restudy",404,"seqrec","No","User","RGN Test","ON","No",750,NA,NA,NA,NA,NA,NA,NA,NA
"A2HYN1BAX7XB4Y","Collector",1,375,"2016-05-25T15:19:05-07:00","3",2,"Stimuli/versionFstim.txt","Procedure/versionFproc.txt","Tetris",NA,"HEART","","HEART","OFF","LI_Cat_Restudy",336,"seqrec","No","User","RGN Test","ON","Yes",1010,NA,NA,NA,NA,NA,NA,NA,NA
"A2HYN1BAX7XB4Y","Collector",1,376,"2016-05-25T15:19:06-07:00","1",2,"Stimuli/versionFstim.txt","Procedure/versionFproc.txt","Tetris",NA,"GALLERY","","GALLERY","OFF","NPLI_Unrel_Restudy",279,"seqrec","No","User","RGN Test","ON","No",820,NA,NA,NA,NA,NA,NA,NA,NA
"A2HYN1BAX7XB4Y","Collector",1,377,"2016-05-25T15:19:08-07:00","2",2,"Stimuli/versionFstim.txt","Procedure/versionFproc.txt","Tetris",NA,"KAYAK","","KAYAK","OFF","NPLI_Unrel_Restudy",270,"seqrec","No","User","RGN Test","ON","No",850,NA,NA,NA,NA,NA,NA,NA,NA
"A2HYN1BAX7XB4Y","Collector",1,378,"2016-05-25T15:19:10-07:00","2",2,"Stimuli/versionFstim.txt","Procedure/versionFproc.txt","Tetris",NA,"GRAIN","","GRAIN","OFF","NPCI_Unrel_Restudy",316,"seqrec","No","User","RGN Test","ON","No",810,NA,NA,NA,NA,NA,NA,NA,NA
"A2HYN1BAX7XB4Y","Collector",1,379,"2016-05-25T15:19:12-07:00","2",2,"Stimuli/versionFstim.txt","Procedure/versionFproc.txt","Tetris",NA,"GLASS","","GLASS","OFF","NPLI_AdHoc_Restudy",256,"seqrec","No","User","RGN Test","ON","No",770,NA,NA,NA,NA,NA,NA,NA,NA
"A2HYN1BAX7XB4Y","Collector",1,380,"2016-05-25T15:19:20-07:00","8",2,"Stimuli/versionFstim.txt","Procedure/versionFproc.txt","Tetris",NA,"EARRINGS","","EARRINGS","OFF","CI_AdHoc_Restudy",398,"seqrec","No","User","RGN Test","ON","No",6010,NA,NA,NA,NA,NA,NA,NA,NA
"A2HYN1BAX7XB4Y","Collector",1,381,"2016-05-25T15:19:22-07:00","2",2,"Stimuli/versionFstim.txt","Procedure/versionFproc.txt","Tetris",NA,"RANK","","RANK","OFF","NPCI_Unrel_Restudy",314,"seqrec","No","User","RGN Test","ON","No",940,NA,NA,NA,NA,NA,NA,NA,NA
