"X.Username","X.ExperimentName","X.Session","X.Trial","X.Date","X.TimeDif","X.Condition.Number","X.Stimuli.File","X.Order.File","X.Condition.Description","X.Condition.Notes","Stimuli.Target","Stimuli.Cue","Stimuli.Answer","Stimuli.Shuffle","Stimuli.Stimuli.Notes","Stimuli.","Procedure.Item","Procedure.Trial.Type","Procedure.Post.Trial","Procedure.Timing","Procedure.Procedure.Notes","Procedure.Shuffle","Response.Response1","Response.RT","Response.RTkey","Response.RTlast","Response.strictAcc","Response.lenientAcc","Response.Accuracy","Response.JOL","Response.postRT","Response.postRTkey"
"APUPF3D94XYUQ","Collector",1,1,"2016-03-09T14:29:02-08:00","-",1,"Stimuli/versionEstim.txt","Procedure/versionEproc.txt","Tetris",NA,"n/a","n/a","n/a","n/a","n/a","n/a",0,"Instruct","N/A","User","Click the button below for the first list.","Off","",1330,NA,NA,NA,NA,NA,NA,NA,NA
"APUPF3D94XYUQ","Collector",1,2,"2016-03-09T14:29:06-08:00","4",1,"Stimuli/versionEstim.txt","Procedure/versionEproc.txt","Tetris",NA,"BOWLING","","BOWLING","OFF","Cat_Restudy_L1","",8,"Study","No","3","Cat_Restudy_L1","ON","",3000,NA,NA,NA,NA,NA,NA,NA,NA
"APUPF3D94XYUQ","Collector",1,3,"2016-03-09T14:29:11-08:00","5",1,"Stimuli/versionEstim.txt","Procedure/versionEproc.txt","Tetris",NA,"GYMNASTICS","","GYMNASTICS","OFF","Cat_Restudy_L1","",20,"Study","No","3","Cat_Restudy_L1","ON","",3000,NA,NA,NA,NA,NA,NA,NA,NA
"APUPF3D94XYUQ","Collector",1,4,"2016-03-09T14:29:16-08:00","5",1,"Stimuli/versionEstim.txt","Procedure/versionEproc.txt","Tetris",NA,"BOXING","","BOXING","OFF","Cat_Restudy_L1","",18,"Study","No","3","Cat_Restudy_L1","ON","",3000,NA,NA,NA,NA,NA,NA,NA,NA
"APUPF3D94XYUQ","Collector",1,5,"2016-03-09T14:29:20-08:00","4",1,"Stimuli/versionEstim.txt","Procedure/versionEproc.txt","Tetris",NA,"BADMINTON","","BADMINTON","OFF","Cat_Restudy_L1","",7,"Study","No","3","Cat_Restudy_L1","ON","",3000,NA,NA,NA,NA,NA,NA,NA,NA
"APUPF3D94XYUQ","Collector",1,6,"2016-03-09T14:29:26-08:00","6",1,"Stimuli/versionEstim.txt","Procedure/versionEproc.txt","Tetris",NA,"RUGBY","","RUGBY","OFF","Cat_Restudy_L1","",19,"Study","No","3","Cat_Restudy_L1","ON","",3000,NA,NA,NA,NA,NA,NA,NA,NA
"APUPF3D94XYUQ","Collector",1,7,"2016-03-09T14:29:30-08:00","4",1,"Stimuli/versionEstim.txt","Procedure/versionEproc.txt","Tetris",NA,"POLO","","POLO","OFF","Cat_Restudy_L1","",17,"Study","No","3","Cat_Restudy_L1","ON","",3000,NA,NA,NA,NA,NA,NA,NA,NA
"APUPF3D94XYUQ","Collector",1,8,"2016-03-09T14:29:34-08:00","4",1,"Stimuli/versionEstim.txt","Procedure/versionEproc.txt","Tetris",NA,"HOCKEY","","HOCKEY","OFF","Cat_Restudy_L1","",4,"Study","No","3","Cat_Restudy_L1","ON","",3000,NA,NA,NA,NA,NA,NA,NA,NA
"APUPF3D94XYUQ","Collector",1,9,"2016-03-09T14:29:38-08:00","4",1,"Stimuli/versionEstim.txt","Procedure/versionEproc.txt","Tetris",NA,"RACING","","RACING","OFF","Cat_Restudy_L1","",21,"Study","No","3","Cat_Restudy_L1","ON","",3000,NA,NA,NA,NA,NA,NA,NA,NA
"APUPF3D94XYUQ","Collector",1,10,"2016-03-09T14:29:42-08:00","4",1,"Stimuli/versionEstim.txt","Procedure/versionEproc.txt","Tetris",NA,"SOFTBALL","","SOFTBALL","OFF","Cat_Restudy_L1","",15,"Study","No","3","Cat_Restudy_L1","ON","",3000,NA,NA,NA,NA,NA,NA,NA,NA
"APUPF3D94XYUQ","Collector",1,11,"2016-03-09T14:29:46-08:00","4",1,"Stimuli/versionEstim.txt","Procedure/versionEproc.txt","Tetris",NA,"SKIING","","SKIING","OFF","Cat_Restudy_L1","",12,"Study","No","3","Cat_Restudy_L1","ON","",3000,NA,NA,NA,NA,NA,NA,NA,NA
"APUPF3D94XYUQ","Collector",1,12,"2016-03-09T14:29:53-08:00","7",1,"Stimuli/versionEstim.txt","Procedure/versionEproc.txt","Tetris",NA,"GOLF","","GOLF","OFF","Cat_Restudy_L1","",3,"Study","No","3","Cat_Restudy_L1","ON","",3000,NA,NA,NA,NA,NA,NA,NA,NA
"APUPF3D94XYUQ","Collector",1,13,"2016-03-09T14:29:58-08:00","5",1,"Stimuli/versionEstim.txt","Procedure/versionEproc.txt","Tetris",NA,"WRESTLING","","WRESTLING","OFF","Cat_Restudy_L1","",9,"Study","No","3","Cat_Restudy_L1","ON","",3000,NA,NA,NA,NA,NA,NA,NA,NA
"APUPF3D94XYUQ","Collector",1,14,"2016-03-09T14:30:02-08:00","4",1,"Stimuli/versionEstim.txt","Procedure/versionEproc.txt","Tetris",NA,"SOCCER","","SOCCER","OFF","Cat_Restudy_L1","",2,"Study","No","3","Cat_Restudy_L1","ON","",3000,NA,NA,NA,NA,NA,NA,NA,NA
"APUPF3D94XYUQ","Collector",1,15,"2016-03-09T14:30:06-08:00","4",1,"Stimuli/versionEstim.txt","Procedure/versionEproc.txt","Tetris",NA,"FISHING","","FISHING","OFF","Cat_Restudy_L1","",16,"Study","No","3","Cat_Restudy_L1","ON","",3000,NA,NA,NA,NA,NA,NA,NA,NA
"APUPF3D94XYUQ","Collector",1,16,"2016-03-09T14:30:11-08:00","5",1,"Stimuli/versionEstim.txt","Procedure/versionEproc.txt","Tetris",NA,"ARCHERY","","ARCHERY","OFF","Cat_Restudy_L1","",11,"Study","No","3","Cat_Restudy_L1","ON","",3000,NA,NA,NA,NA,NA,NA,NA,NA
"APUPF3D94XYUQ","Collector",1,17,"2016-03-09T14:30:15-08:00","4",1,"Stimuli/versionEstim.txt","Procedure/versionEproc.txt","Tetris",NA,"VOLLEYBALL","","VOLLEYBALL","OFF","Cat_Restudy_L1","",10,"Study","No","3","Cat_Restudy_L1","ON","",3000,NA,NA,NA,NA,NA,NA,NA,NA
"APUPF3D94XYUQ","Collector",1,18,"2016-03-09T14:30:19-08:00","4",1,"Stimuli/versionEstim.txt","Procedure/versionEproc.txt","Tetris",NA,"LACROSSE","","LACROSSE","OFF","Cat_Restudy_L1","",6,"Study","No","3","Cat_Restudy_L1","ON","",3000,NA,NA,NA,NA,NA,NA,NA,NA
"APUPF3D94XYUQ","Collector",1,19,"2016-03-09T14:30:24-08:00","5",1,"Stimuli/versionEstim.txt","Procedure/versionEproc.txt","Tetris",NA,"TRACK","","TRACK","OFF","Cat_Restudy_L1","",5,"Study","No","3","Cat_Restudy_L1","ON","",3000,NA,NA,NA,NA,NA,NA,NA,NA
"APUPF3D94XYUQ","Collector",1,20,"2016-03-09T14:30:28-08:00","4",1,"Stimuli/versionEstim.txt","Procedure/versionEproc.txt","Tetris",NA,"FENCING","","FENCING","OFF","Cat_Restudy_L1","",13,"Study","No","3","Cat_Restudy_L1","ON","",3000,NA,NA,NA,NA,NA,NA,NA,NA
"APUPF3D94XYUQ","Collector",1,21,"2016-03-09T14:30:32-08:00","4",1,"Stimuli/versionEstim.txt","Procedure/versionEproc.txt","Tetris",NA,"PING-PONG","","PING-PONG","OFF","Cat_Restudy_L1","",14,"Study","No","3","Cat_Restudy_L1","ON","",3000,NA,NA,NA,NA,NA,NA,NA,NA
"APUPF3D94XYUQ","Collector",1,22,"2016-03-09T14:30:35-08:00","3",1,"Stimuli/versionEstim.txt","Procedure/versionEproc.txt","Tetris",NA,"n/a","n/a","n/a","n/a","n/a","n/a",0,"Instruct","N/A","User","Restudy Instructions: You will now view this list again, but in a different order. Click the button below to begin.","OFF","",2150,NA,NA,NA,NA,NA,NA,NA,NA
"APUPF3D94XYUQ","Collector",1,23,"2016-03-09T14:30:39-08:00","4",1,"Stimuli/versionEstim.txt","Procedure/versionEproc.txt","Tetris",NA,"GYMNASTICS","","GYMNASTICS","OFF","Cat_Restudy_L1","",40,"Study","No","3","Cat_Restudy_L1","ON","",3000,NA,NA,NA,NA,NA,NA,NA,NA
"APUPF3D94XYUQ","Collector",1,24,"2016-03-09T14:30:43-08:00","4",1,"Stimuli/versionEstim.txt","Procedure/versionEproc.txt","Tetris",NA,"RACING","","RACING","OFF","Cat_Restudy_L1","",41,"Study","No","3","Cat_Restudy_L1","ON","",3000,NA,NA,NA,NA,NA,NA,NA,NA
"APUPF3D94XYUQ","Collector",1,25,"2016-03-09T14:30:47-08:00","4",1,"Stimuli/versionEstim.txt","Procedure/versionEproc.txt","Tetris",NA,"SKIING","","SKIING","OFF","Cat_Restudy_L1","",32,"Study","No","3","Cat_Restudy_L1","ON","",3000,NA,NA,NA,NA,NA,NA,NA,NA
"APUPF3D94XYUQ","Collector",1,26,"2016-03-09T14:30:52-08:00","5",1,"Stimuli/versionEstim.txt","Procedure/versionEproc.txt","Tetris",NA,"HOCKEY","","HOCKEY","OFF","Cat_Restudy_L1","",24,"Study","No","3","Cat_Restudy_L1","ON","",3000,NA,NA,NA,NA,NA,NA,NA,NA
"APUPF3D94XYUQ","Collector",1,27,"2016-03-09T14:30:56-08:00","4",1,"Stimuli/versionEstim.txt","Procedure/versionEproc.txt","Tetris",NA,"WRESTLING","","WRESTLING","OFF","Cat_Restudy_L1","",29,"Study","No","3","Cat_Restudy_L1","ON","",3000,NA,NA,NA,NA,NA,NA,NA,NA
"APUPF3D94XYUQ","Collector",1,28,"2016-03-09T14:31:00-08:00","4",1,"Stimuli/versionEstim.txt","Procedure/versionEproc.txt","Tetris",NA,"POLO","","POLO","OFF","Cat_Restudy_L1","",37,"Study","No","3","Cat_Restudy_L1","ON","",3000,NA,NA,NA,NA,NA,NA,NA,NA
"APUPF3D94XYUQ","Collector",1,29,"2016-03-09T14:31:04-08:00","4",1,"Stimuli/versionEstim.txt","Procedure/versionEproc.txt","Tetris",NA,"SOCCER","","SOCCER","OFF","Cat_Restudy_L1","",22,"Study","No","3","Cat_Restudy_L1","ON","",3000,NA,NA,NA,NA,NA,NA,NA,NA
"APUPF3D94XYUQ","Collector",1,30,"2016-03-09T14:31:08-08:00","4",1,"Stimuli/versionEstim.txt","Procedure/versionEproc.txt","Tetris",NA,"BOWLING","","BOWLING","OFF","Cat_Restudy_L1","",28,"Study","No","3","Cat_Restudy_L1","ON","",3000,NA,NA,NA,NA,NA,NA,NA,NA
"APUPF3D94XYUQ","Collector",1,31,"2016-03-09T14:31:13-08:00","5",1,"Stimuli/versionEstim.txt","Procedure/versionEproc.txt","Tetris",NA,"PING-PONG","","PING-PONG","OFF","Cat_Restudy_L1","",34,"Study","No","3","Cat_Restudy_L1","ON","",3000,NA,NA,NA,NA,NA,NA,NA,NA
"APUPF3D94XYUQ","Collector",1,32,"2016-03-09T14:31:17-08:00","4",1,"Stimuli/versionEstim.txt","Procedure/versionEproc.txt","Tetris",NA,"BADMINTON","","BADMINTON","OFF","Cat_Restudy_L1","",27,"Study","No","3","Cat_Restudy_L1","ON","",3000,NA,NA,NA,NA,NA,NA,NA,NA
"APUPF3D94XYUQ","Collector",1,33,"2016-03-09T14:31:21-08:00","4",1,"Stimuli/versionEstim.txt","Procedure/versionEproc.txt","Tetris",NA,"GOLF","","GOLF","OFF","Cat_Restudy_L1","",23,"Study","No","3","Cat_Restudy_L1","ON","",3000,NA,NA,NA,NA,NA,NA,NA,NA
"APUPF3D94XYUQ","Collector",1,34,"2016-03-09T14:31:25-08:00","4",1,"Stimuli/versionEstim.txt","Procedure/versionEproc.txt","Tetris",NA,"SOFTBALL","","SOFTBALL","OFF","Cat_Restudy_L1","",35,"Study","No","3","Cat_Restudy_L1","ON","",3000,NA,NA,NA,NA,NA,NA,NA,NA
"APUPF3D94XYUQ","Collector",1,35,"2016-03-09T14:31:29-08:00","4",1,"Stimuli/versionEstim.txt","Procedure/versionEproc.txt","Tetris",NA,"LACROSSE","","LACROSSE","OFF","Cat_Restudy_L1","",26,"Study","No","3","Cat_Restudy_L1","ON","",3000,NA,NA,NA,NA,NA,NA,NA,NA
"APUPF3D94XYUQ","Collector",1,36,"2016-03-09T14:31:33-08:00","4",1,"Stimuli/versionEstim.txt","Procedure/versionEproc.txt","Tetris",NA,"FENCING","","FENCING","OFF","Cat_Restudy_L1","",33,"Study","No","3","Cat_Restudy_L1","ON","",3000,NA,NA,NA,NA,NA,NA,NA,NA
"APUPF3D94XYUQ","Collector",1,37,"2016-03-09T14:31:37-08:00","4",1,"Stimuli/versionEstim.txt","Procedure/versionEproc.txt","Tetris",NA,"FISHING","","FISHING","OFF","Cat_Restudy_L1","",36,"Study","No","3","Cat_Restudy_L1","ON","",3000,NA,NA,NA,NA,NA,NA,NA,NA
"APUPF3D94XYUQ","Collector",1,38,"2016-03-09T14:31:42-08:00","5",1,"Stimuli/versionEstim.txt","Procedure/versionEproc.txt","Tetris",NA,"RUGBY","","RUGBY","OFF","Cat_Restudy_L1","",39,"Study","No","3","Cat_Restudy_L1","ON","",3000,NA,NA,NA,NA,NA,NA,NA,NA
"APUPF3D94XYUQ","Collector",1,39,"2016-03-09T14:31:46-08:00","4",1,"Stimuli/versionEstim.txt","Procedure/versionEproc.txt","Tetris",NA,"VOLLEYBALL","","VOLLEYBALL","OFF","Cat_Restudy_L1","",30,"Study","No","3","Cat_Restudy_L1","ON","",3000,NA,NA,NA,NA,NA,NA,NA,NA
"APUPF3D94XYUQ","Collector",1,40,"2016-03-09T14:31:50-08:00","4",1,"Stimuli/versionEstim.txt","Procedure/versionEproc.txt","Tetris",NA,"BOXING","","BOXING","OFF","Cat_Restudy_L1","",38,"Study","No","3","Cat_Restudy_L1","ON","",3000,NA,NA,NA,NA,NA,NA,NA,NA
"APUPF3D94XYUQ","Collector",1,41,"2016-03-09T14:31:54-08:00","4",1,"Stimuli/versionEstim.txt","Procedure/versionEproc.txt","Tetris",NA,"ARCHERY","","ARCHERY","OFF","Cat_Restudy_L1","",31,"Study","No","3","Cat_Restudy_L1","ON","",3000,NA,NA,NA,NA,NA,NA,NA,NA
"APUPF3D94XYUQ","Collector",1,42,"2016-03-09T14:31:58-08:00","4",1,"Stimuli/versionEstim.txt","Procedure/versionEproc.txt","Tetris",NA,"TRACK","","TRACK","OFF","Cat_Restudy_L1","",25,"Study","No","3","Cat_Restudy_L1","ON","",3000,NA,NA,NA,NA,NA,NA,NA,NA
"APUPF3D94XYUQ","Collector",1,43,"2016-03-09T14:32:01-08:00","3",1,"Stimuli/versionEstim.txt","Procedure/versionEproc.txt","Tetris",NA,"n/a","n/a","n/a","n/a","n/a","n/a",0,"Instruct","N/A","User","Click the button below for a new list.","OFF","",2160,NA,NA,NA,NA,NA,NA,NA,NA
"APUPF3D94XYUQ","Collector",1,44,"2016-03-09T14:32:06-08:00","5",1,"Stimuli/versionEstim.txt","Procedure/versionEproc.txt","Tetris",NA,"BOWL","","BOWL","OFF","AdHoc_Restudy_L2","",47,"Study","No","3","AdHoc_Restudy_L2","ON","",3000,NA,NA,NA,NA,NA,NA,NA,NA
"APUPF3D94XYUQ","Collector",1,45,"2016-03-09T14:32:10-08:00","4",1,"Stimuli/versionEstim.txt","Procedure/versionEproc.txt","Tetris",NA,"FREEZER","","FREEZER","OFF","AdHoc_Restudy_L2","",42,"Study","No","3","AdHoc_Restudy_L2","ON","",3000,NA,NA,NA,NA,NA,NA,NA,NA
"APUPF3D94XYUQ","Collector",1,46,"2016-03-09T14:32:14-08:00","4",1,"Stimuli/versionEstim.txt","Procedure/versionEproc.txt","Tetris",NA,"STRAINER","","STRAINER","OFF","AdHoc_Restudy_L2","",56,"Study","No","3","AdHoc_Restudy_L2","ON","",3000,NA,NA,NA,NA,NA,NA,NA,NA
"APUPF3D94XYUQ","Collector",1,47,"2016-03-09T14:32:18-08:00","4",1,"Stimuli/versionEstim.txt","Procedure/versionEproc.txt","Tetris",NA,"PLATTER","","PLATTER","OFF","AdHoc_Restudy_L2","",45,"Study","No","3","AdHoc_Restudy_L2","ON","",3000,NA,NA,NA,NA,NA,NA,NA,NA
"APUPF3D94XYUQ","Collector",1,48,"2016-03-09T14:32:22-08:00","4",1,"Stimuli/versionEstim.txt","Procedure/versionEproc.txt","Tetris",NA,"MUG","","MUG","OFF","AdHoc_Restudy_L2","",50,"Study","No","3","AdHoc_Restudy_L2","ON","",3000,NA,NA,NA,NA,NA,NA,NA,NA
"APUPF3D94XYUQ","Collector",1,49,"2016-03-09T14:32:29-08:00","7",1,"Stimuli/versionEstim.txt","Procedure/versionEproc.txt","Tetris",NA,"SAUCE PAN","","SAUCE PAN","OFF","AdHoc_Restudy_L2","",54,"Study","No","3","AdHoc_Restudy_L2","ON","",3000,NA,NA,NA,NA,NA,NA,NA,NA
"APUPF3D94XYUQ","Collector",1,50,"2016-03-09T14:32:33-08:00","4",1,"Stimuli/versionEstim.txt","Procedure/versionEproc.txt","Tetris",NA,"MIXER","","MIXER","OFF","AdHoc_Restudy_L2","",57,"Study","No","3","AdHoc_Restudy_L2","ON","",3000,NA,NA,NA,NA,NA,NA,NA,NA
"APUPF3D94XYUQ","Collector",1,51,"2016-03-09T14:32:37-08:00","4",1,"Stimuli/versionEstim.txt","Procedure/versionEproc.txt","Tetris",NA,"SPOON","","SPOON","OFF","AdHoc_Restudy_L2","",52,"Study","No","3","AdHoc_Restudy_L2","ON","",3000,NA,NA,NA,NA,NA,NA,NA,NA
"APUPF3D94XYUQ","Collector",1,52,"2016-03-09T14:32:41-08:00","4",1,"Stimuli/versionEstim.txt","Procedure/versionEproc.txt","Tetris",NA,"GLASS","","GLASS","OFF","AdHoc_Restudy_L2","",51,"Study","No","3","AdHoc_Restudy_L2","ON","",3000,NA,NA,NA,NA,NA,NA,NA,NA
"APUPF3D94XYUQ","Collector",1,53,"2016-03-09T14:32:46-08:00","5",1,"Stimuli/versionEstim.txt","Procedure/versionEproc.txt","Tetris",NA,"FORK","","FORK","OFF","AdHoc_Restudy_L2","",53,"Study","No","3","AdHoc_Restudy_L2","ON","",3000,NA,NA,NA,NA,NA,NA,NA,NA
"APUPF3D94XYUQ","Collector",1,54,"2016-03-09T14:32:50-08:00","4",1,"Stimuli/versionEstim.txt","Procedure/versionEproc.txt","Tetris",NA,"OVEN MITTS","","OVEN MITTS","OFF","AdHoc_Restudy_L2","",48,"Study","No","3","AdHoc_Restudy_L2","ON","",3000,NA,NA,NA,NA,NA,NA,NA,NA
"APUPF3D94XYUQ","Collector",1,55,"2016-03-09T14:32:54-08:00","4",1,"Stimuli/versionEstim.txt","Procedure/versionEproc.txt","Tetris",NA,"MEASURING CUP","","MEASURING CUP","OFF","AdHoc_Restudy_L2","",49,"Study","No","3","AdHoc_Restudy_L2","ON","",3000,NA,NA,NA,NA,NA,NA,NA,NA
"APUPF3D94XYUQ","Collector",1,56,"2016-03-09T14:32:58-08:00","4",1,"Stimuli/versionEstim.txt","Procedure/versionEproc.txt","Tetris",NA,"PLATE","","PLATE","OFF","AdHoc_Restudy_L2","",46,"Study","No","3","AdHoc_Restudy_L2","ON","",3000,NA,NA,NA,NA,NA,NA,NA,NA
"APUPF3D94XYUQ","Collector",1,57,"2016-03-09T14:33:02-08:00","4",1,"Stimuli/versionEstim.txt","Procedure/versionEproc.txt","Tetris",NA,"KETTLE","","KETTLE","OFF","AdHoc_Restudy_L2","",44,"Study","No","3","AdHoc_Restudy_L2","ON","",3000,NA,NA,NA,NA,NA,NA,NA,NA
"APUPF3D94XYUQ","Collector",1,58,"2016-03-09T14:33:07-08:00","5",1,"Stimuli/versionEstim.txt","Procedure/versionEproc.txt","Tetris",NA,"POTS","","POTS","OFF","AdHoc_Restudy_L2","",59,"Study","No","3","AdHoc_Restudy_L2","ON","",3000,NA,NA,NA,NA,NA,NA,NA,NA
"APUPF3D94XYUQ","Collector",1,59,"2016-03-09T14:33:11-08:00","4",1,"Stimuli/versionEstim.txt","Procedure/versionEproc.txt","Tetris",NA,"KNIFE","","KNIFE","OFF","AdHoc_Restudy_L2","",43,"Study","No","3","AdHoc_Restudy_L2","ON","",3000,NA,NA,NA,NA,NA,NA,NA,NA
"APUPF3D94XYUQ","Collector",1,60,"2016-03-09T14:33:15-08:00","4",1,"Stimuli/versionEstim.txt","Procedure/versionEproc.txt","Tetris",NA,"STOVE","","STOVE","OFF","AdHoc_Restudy_L2","",61,"Study","No","3","AdHoc_Restudy_L2","ON","",3000,NA,NA,NA,NA,NA,NA,NA,NA
"APUPF3D94XYUQ","Collector",1,61,"2016-03-09T14:33:20-08:00","5",1,"Stimuli/versionEstim.txt","Procedure/versionEproc.txt","Tetris",NA,"CAN OPENER","","CAN OPENER","OFF","AdHoc_Restudy_L2","",58,"Study","No","3","AdHoc_Restudy_L2","ON","",3000,NA,NA,NA,NA,NA,NA,NA,NA
"APUPF3D94XYUQ","Collector",1,62,"2016-03-09T14:33:25-08:00","5",1,"Stimuli/versionEstim.txt","Procedure/versionEproc.txt","Tetris",NA,"SPICE RACK","","SPICE RACK","OFF","AdHoc_Restudy_L2","",60,"Study","No","3","AdHoc_Restudy_L2","ON","",3000,NA,NA,NA,NA,NA,NA,NA,NA
"APUPF3D94XYUQ","Collector",1,63,"2016-03-09T14:33:29-08:00","4",1,"Stimuli/versionEstim.txt","Procedure/versionEproc.txt","Tetris",NA,"SKILLET","","SKILLET","OFF","AdHoc_Restudy_L2","",55,"Study","No","3","AdHoc_Restudy_L2","ON","",3000,NA,NA,NA,NA,NA,NA,NA,NA
"APUPF3D94XYUQ","Collector",1,64,"2016-03-09T14:33:31-08:00","2",1,"Stimuli/versionEstim.txt","Procedure/versionEproc.txt","Tetris",NA,"n/a","n/a","n/a","n/a","n/a","n/a",0,"Instruct","N/A","User","Restudy Instructions: You will now view this list again, but in a different order. Click the button below to begin.","OFF","",1390,NA,NA,NA,NA,NA,NA,NA,NA
"APUPF3D94XYUQ","Collector",1,65,"2016-03-09T14:33:36-08:00","5",1,"Stimuli/versionEstim.txt","Procedure/versionEproc.txt","Tetris",NA,"GLASS","","GLASS","OFF","AdHoc_Restudy_L2","",71,"Study","No","3","AdHoc_Restudy_L2","ON","",3000,NA,NA,NA,NA,NA,NA,NA,NA
"APUPF3D94XYUQ","Collector",1,66,"2016-03-09T14:33:40-08:00","4",1,"Stimuli/versionEstim.txt","Procedure/versionEproc.txt","Tetris",NA,"SPICE RACK","","SPICE RACK","OFF","AdHoc_Restudy_L2","",80,"Study","No","3","AdHoc_Restudy_L2","ON","",3000,NA,NA,NA,NA,NA,NA,NA,NA
"APUPF3D94XYUQ","Collector",1,67,"2016-03-09T14:33:44-08:00","4",1,"Stimuli/versionEstim.txt","Procedure/versionEproc.txt","Tetris",NA,"POTS","","POTS","OFF","AdHoc_Restudy_L2","",79,"Study","No","3","AdHoc_Restudy_L2","ON","",3000,NA,NA,NA,NA,NA,NA,NA,NA
"APUPF3D94XYUQ","Collector",1,68,"2016-03-09T14:33:48-08:00","4",1,"Stimuli/versionEstim.txt","Procedure/versionEproc.txt","Tetris",NA,"OVEN MITTS","","OVEN MITTS","OFF","AdHoc_Restudy_L2","",68,"Study","No","3","AdHoc_Restudy_L2","ON","",3000,NA,NA,NA,NA,NA,NA,NA,NA
"APUPF3D94XYUQ","Collector",1,69,"2016-03-09T14:33:52-08:00","4",1,"Stimuli/versionEstim.txt","Procedure/versionEproc.txt","Tetris",NA,"SPOON","","SPOON","OFF","AdHoc_Restudy_L2","",72,"Study","No","3","AdHoc_Restudy_L2","ON","",3000,NA,NA,NA,NA,NA,NA,NA,NA
"APUPF3D94XYUQ","Collector",1,70,"2016-03-09T14:33:56-08:00","4",1,"Stimuli/versionEstim.txt","Procedure/versionEproc.txt","Tetris",NA,"PLATE","","PLATE","OFF","AdHoc_Restudy_L2","",66,"Study","No","3","AdHoc_Restudy_L2","ON","",3000,NA,NA,NA,NA,NA,NA,NA,NA
"APUPF3D94XYUQ","Collector",1,71,"2016-03-09T14:34:01-08:00","5",1,"Stimuli/versionEstim.txt","Procedure/versionEproc.txt","Tetris",NA,"MUG","","MUG","OFF","AdHoc_Restudy_L2","",70,"Study","No","3","AdHoc_Restudy_L2","ON","",3000,NA,NA,NA,NA,NA,NA,NA,NA
"APUPF3D94XYUQ","Collector",1,72,"2016-03-09T14:34:05-08:00","4",1,"Stimuli/versionEstim.txt","Procedure/versionEproc.txt","Tetris",NA,"KNIFE","","KNIFE","OFF","AdHoc_Restudy_L2","",63,"Study","No","3","AdHoc_Restudy_L2","ON","",3000,NA,NA,NA,NA,NA,NA,NA,NA
"APUPF3D94XYUQ","Collector",1,73,"2016-03-09T14:34:09-08:00","4",1,"Stimuli/versionEstim.txt","Procedure/versionEproc.txt","Tetris",NA,"MEASURING CUP","","MEASURING CUP","OFF","AdHoc_Restudy_L2","",69,"Study","No","3","AdHoc_Restudy_L2","ON","",3000,NA,NA,NA,NA,NA,NA,NA,NA
"APUPF3D94XYUQ","Collector",1,74,"2016-03-09T14:34:14-08:00","5",1,"Stimuli/versionEstim.txt","Procedure/versionEproc.txt","Tetris",NA,"MIXER","","MIXER","OFF","AdHoc_Restudy_L2","",77,"Study","No","3","AdHoc_Restudy_L2","ON","",3000,NA,NA,NA,NA,NA,NA,NA,NA
"APUPF3D94XYUQ","Collector",1,75,"2016-03-09T14:34:18-08:00","4",1,"Stimuli/versionEstim.txt","Procedure/versionEproc.txt","Tetris",NA,"BOWL","","BOWL","OFF","AdHoc_Restudy_L2","",67,"Study","No","3","AdHoc_Restudy_L2","ON","",3000,NA,NA,NA,NA,NA,NA,NA,NA
"APUPF3D94XYUQ","Collector",1,76,"2016-03-09T14:34:22-08:00","4",1,"Stimuli/versionEstim.txt","Procedure/versionEproc.txt","Tetris",NA,"STRAINER","","STRAINER","OFF","AdHoc_Restudy_L2","",76,"Study","No","3","AdHoc_Restudy_L2","ON","",3000,NA,NA,NA,NA,NA,NA,NA,NA
"APUPF3D94XYUQ","Collector",1,77,"2016-03-09T14:34:26-08:00","4",1,"Stimuli/versionEstim.txt","Procedure/versionEproc.txt","Tetris",NA,"SKILLET","","SKILLET","OFF","AdHoc_Restudy_L2","",75,"Study","No","3","AdHoc_Restudy_L2","ON","",3000,NA,NA,NA,NA,NA,NA,NA,NA
"APUPF3D94XYUQ","Collector",1,78,"2016-03-09T14:34:30-08:00","4",1,"Stimuli/versionEstim.txt","Procedure/versionEproc.txt","Tetris",NA,"CAN OPENER","","CAN OPENER","OFF","AdHoc_Restudy_L2","",78,"Study","No","3","AdHoc_Restudy_L2","ON","",3000,NA,NA,NA,NA,NA,NA,NA,NA
"APUPF3D94XYUQ","Collector",1,79,"2016-03-09T14:34:34-08:00","4",1,"Stimuli/versionEstim.txt","Procedure/versionEproc.txt","Tetris",NA,"FREEZER","","FREEZER","OFF","AdHoc_Restudy_L2","",62,"Study","No","3","AdHoc_Restudy_L2","ON","",3000,NA,NA,NA,NA,NA,NA,NA,NA
"APUPF3D94XYUQ","Collector",1,80,"2016-03-09T14:34:38-08:00","4",1,"Stimuli/versionEstim.txt","Procedure/versionEproc.txt","Tetris",NA,"KETTLE","","KETTLE","OFF","AdHoc_Restudy_L2","",64,"Study","No","3","AdHoc_Restudy_L2","ON","",3000,NA,NA,NA,NA,NA,NA,NA,NA
"APUPF3D94XYUQ","Collector",1,81,"2016-03-09T14:34:43-08:00","5",1,"Stimuli/versionEstim.txt","Procedure/versionEproc.txt","Tetris",NA,"FORK","","FORK","OFF","AdHoc_Restudy_L2","",73,"Study","No","3","AdHoc_Restudy_L2","ON","",3000,NA,NA,NA,NA,NA,NA,NA,NA
"APUPF3D94XYUQ","Collector",1,82,"2016-03-09T14:34:48-08:00","5",1,"Stimuli/versionEstim.txt","Procedure/versionEproc.txt","Tetris",NA,"STOVE","","STOVE","OFF","AdHoc_Restudy_L2","",81,"Study","No","3","AdHoc_Restudy_L2","ON","",3000,NA,NA,NA,NA,NA,NA,NA,NA
"APUPF3D94XYUQ","Collector",1,83,"2016-03-09T14:34:53-08:00","5",1,"Stimuli/versionEstim.txt","Procedure/versionEproc.txt","Tetris",NA,"SAUCE PAN","","SAUCE PAN","OFF","AdHoc_Restudy_L2","",74,"Study","No","3","AdHoc_Restudy_L2","ON","",3000,NA,NA,NA,NA,NA,NA,NA,NA
"APUPF3D94XYUQ","Collector",1,84,"2016-03-09T14:34:58-08:00","5",1,"Stimuli/versionEstim.txt","Procedure/versionEproc.txt","Tetris",NA,"PLATTER","","PLATTER","OFF","AdHoc_Restudy_L2","",65,"Study","No","3","AdHoc_Restudy_L2","ON","",3000,NA,NA,NA,NA,NA,NA,NA,NA
"APUPF3D94XYUQ","Collector",1,85,"2016-03-09T14:35:01-08:00","3",1,"Stimuli/versionEstim.txt","Procedure/versionEproc.txt","Tetris",NA,"n/a","n/a","n/a","n/a","n/a","n/a",0,"Instruct","N/A","User","Click the button below for a new list.","OFF","",1980,NA,NA,NA,NA,NA,NA,NA,NA
"APUPF3D94XYUQ","Collector",1,86,"2016-03-09T14:35:06-08:00","5",1,"Stimuli/versionEstim.txt","Procedure/versionEproc.txt","Tetris",NA,"WIRE","","WIRE","OFF","Unrel_Restudy_L3","",85,"Study","No","3","Unrel_Restudy_L3","ON","",3000,NA,NA,NA,NA,NA,NA,NA,NA
"APUPF3D94XYUQ","Collector",1,87,"2016-03-09T14:35:10-08:00","4",1,"Stimuli/versionEstim.txt","Procedure/versionEproc.txt","Tetris",NA,"KAYAK","","KAYAK","OFF","Unrel_Restudy_L3","",99,"Study","No","3","Unrel_Restudy_L3","ON","",3000,NA,NA,NA,NA,NA,NA,NA,NA
"APUPF3D94XYUQ","Collector",1,88,"2016-03-09T14:35:14-08:00","4",1,"Stimuli/versionEstim.txt","Procedure/versionEproc.txt","Tetris",NA,"PATRON","","PATRON","OFF","Unrel_Restudy_L3","",94,"Study","No","3","Unrel_Restudy_L3","ON","",3000,NA,NA,NA,NA,NA,NA,NA,NA
"APUPF3D94XYUQ","Collector",1,89,"2016-03-09T14:35:18-08:00","4",1,"Stimuli/versionEstim.txt","Procedure/versionEproc.txt","Tetris",NA,"FLASK","","FLASK","OFF","Unrel_Restudy_L3","",83,"Study","No","3","Unrel_Restudy_L3","ON","",3000,NA,NA,NA,NA,NA,NA,NA,NA
"APUPF3D94XYUQ","Collector",1,90,"2016-03-09T14:35:22-08:00","4",1,"Stimuli/versionEstim.txt","Procedure/versionEproc.txt","Tetris",NA,"PALE","","PALE","OFF","Unrel_Restudy_L3","",84,"Study","No","3","Unrel_Restudy_L3","ON","",3000,NA,NA,NA,NA,NA,NA,NA,NA
"APUPF3D94XYUQ","Collector",1,91,"2016-03-09T14:35:28-08:00","6",1,"Stimuli/versionEstim.txt","Procedure/versionEproc.txt","Tetris",NA,"PIT","","PIT","OFF","Unrel_Restudy_L3","",89,"Study","No","3","Unrel_Restudy_L3","ON","",3000,NA,NA,NA,NA,NA,NA,NA,NA
"APUPF3D94XYUQ","Collector",1,92,"2016-03-09T14:35:32-08:00","4",1,"Stimuli/versionEstim.txt","Procedure/versionEproc.txt","Tetris",NA,"PRESS","","PRESS","OFF","Unrel_Restudy_L3","",97,"Study","No","3","Unrel_Restudy_L3","ON","",3000,NA,NA,NA,NA,NA,NA,NA,NA
"APUPF3D94XYUQ","Collector",1,93,"2016-03-09T14:35:37-08:00","5",1,"Stimuli/versionEstim.txt","Procedure/versionEproc.txt","Tetris",NA,"ARROW","","ARROW","OFF","Unrel_Restudy_L3","",87,"Study","No","3","Unrel_Restudy_L3","ON","",3000,NA,NA,NA,NA,NA,NA,NA,NA
"APUPF3D94XYUQ","Collector",1,94,"2016-03-09T14:35:41-08:00","4",1,"Stimuli/versionEstim.txt","Procedure/versionEproc.txt","Tetris",NA,"DINER","","DINER","OFF","Unrel_Restudy_L3","",95,"Study","No","3","Unrel_Restudy_L3","ON","",3000,NA,NA,NA,NA,NA,NA,NA,NA
"APUPF3D94XYUQ","Collector",1,95,"2016-03-09T14:35:45-08:00","4",1,"Stimuli/versionEstim.txt","Procedure/versionEproc.txt","Tetris",NA,"SHELTER","","SHELTER","OFF","Unrel_Restudy_L3","",100,"Study","No","3","Unrel_Restudy_L3","ON","",3000,NA,NA,NA,NA,NA,NA,NA,NA
"APUPF3D94XYUQ","Collector",1,96,"2016-03-09T14:35:49-08:00","4",1,"Stimuli/versionEstim.txt","Procedure/versionEproc.txt","Tetris",NA,"SHOP","","SHOP","OFF","Unrel_Restudy_L3","",101,"Study","No","3","Unrel_Restudy_L3","ON","",3000,NA,NA,NA,NA,NA,NA,NA,NA
"APUPF3D94XYUQ","Collector",1,97,"2016-03-09T14:35:54-08:00","5",1,"Stimuli/versionEstim.txt","Procedure/versionEproc.txt","Tetris",NA,"WASHCLOTH","","WASHCLOTH","OFF","Unrel_Restudy_L3","",98,"Study","No","3","Unrel_Restudy_L3","ON","",3000,NA,NA,NA,NA,NA,NA,NA,NA
"APUPF3D94XYUQ","Collector",1,98,"2016-03-09T14:35:58-08:00","4",1,"Stimuli/versionEstim.txt","Procedure/versionEproc.txt","Tetris",NA,"TUNE","","TUNE","OFF","Unrel_Restudy_L3","",91,"Study","No","3","Unrel_Restudy_L3","ON","",3000,NA,NA,NA,NA,NA,NA,NA,NA
"APUPF3D94XYUQ","Collector",1,99,"2016-03-09T14:36:02-08:00","4",1,"Stimuli/versionEstim.txt","Procedure/versionEproc.txt","Tetris",NA,"TORTOISE","","TORTOISE","OFF","Unrel_Restudy_L3","",92,"Study","No","3","Unrel_Restudy_L3","ON","",3000,NA,NA,NA,NA,NA,NA,NA,NA
"APUPF3D94XYUQ","Collector",1,100,"2016-03-09T14:36:06-08:00","4",1,"Stimuli/versionEstim.txt","Procedure/versionEproc.txt","Tetris",NA,"SKEWERS","","SKEWERS","OFF","Unrel_Restudy_L3","",88,"Study","No","3","Unrel_Restudy_L3","ON","",3000,NA,NA,NA,NA,NA,NA,NA,NA
"APUPF3D94XYUQ","Collector",1,101,"2016-03-09T14:36:10-08:00","4",1,"Stimuli/versionEstim.txt","Procedure/versionEproc.txt","Tetris",NA,"PICKLE","","PICKLE","OFF","Unrel_Restudy_L3","",82,"Study","No","3","Unrel_Restudy_L3","ON","",3000,NA,NA,NA,NA,NA,NA,NA,NA
"APUPF3D94XYUQ","Collector",1,102,"2016-03-09T14:36:14-08:00","4",1,"Stimuli/versionEstim.txt","Procedure/versionEproc.txt","Tetris",NA,"MOAT","","MOAT","OFF","Unrel_Restudy_L3","",90,"Study","No","3","Unrel_Restudy_L3","ON","",3000,NA,NA,NA,NA,NA,NA,NA,NA
"APUPF3D94XYUQ","Collector",1,103,"2016-03-09T14:36:18-08:00","4",1,"Stimuli/versionEstim.txt","Procedure/versionEproc.txt","Tetris",NA,"PASTE","","PASTE","OFF","Unrel_Restudy_L3","",93,"Study","No","3","Unrel_Restudy_L3","ON","",3000,NA,NA,NA,NA,NA,NA,NA,NA
"APUPF3D94XYUQ","Collector",1,104,"2016-03-09T14:36:22-08:00","4",1,"Stimuli/versionEstim.txt","Procedure/versionEproc.txt","Tetris",NA,"PENNY","","PENNY","OFF","Unrel_Restudy_L3","",86,"Study","No","3","Unrel_Restudy_L3","ON","",3000,NA,NA,NA,NA,NA,NA,NA,NA
"APUPF3D94XYUQ","Collector",1,105,"2016-03-09T14:36:26-08:00","4",1,"Stimuli/versionEstim.txt","Procedure/versionEproc.txt","Tetris",NA,"MANE","","MANE","OFF","Unrel_Restudy_L3","",96,"Study","No","3","Unrel_Restudy_L3","ON","",3000,NA,NA,NA,NA,NA,NA,NA,NA
"APUPF3D94XYUQ","Collector",1,106,"2016-03-09T14:36:29-08:00","3",1,"Stimuli/versionEstim.txt","Procedure/versionEproc.txt","Tetris",NA,"n/a","n/a","n/a","n/a","n/a","n/a",0,"Instruct","N/A","User","Restudy Instructions: You will now view this list again, but in a different order. Click the button below to begin.","OFF","",1380,NA,NA,NA,NA,NA,NA,NA,NA
"APUPF3D94XYUQ","Collector",1,107,"2016-03-09T14:36:33-08:00","4",1,"Stimuli/versionEstim.txt","Procedure/versionEproc.txt","Tetris",NA,"PENNY","","PENNY","OFF","Unrel_Restudy_L3","",106,"Study","No","3","Unrel_Restudy_L3","ON","",3000,NA,NA,NA,NA,NA,NA,NA,NA
"APUPF3D94XYUQ","Collector",1,108,"2016-03-09T14:36:37-08:00","4",1,"Stimuli/versionEstim.txt","Procedure/versionEproc.txt","Tetris",NA,"SHOP","","SHOP","OFF","Unrel_Restudy_L3","",121,"Study","No","3","Unrel_Restudy_L3","ON","",3000,NA,NA,NA,NA,NA,NA,NA,NA
"APUPF3D94XYUQ","Collector",1,109,"2016-03-09T14:36:41-08:00","4",1,"Stimuli/versionEstim.txt","Procedure/versionEproc.txt","Tetris",NA,"PIT","","PIT","OFF","Unrel_Restudy_L3","",109,"Study","No","3","Unrel_Restudy_L3","ON","",3000,NA,NA,NA,NA,NA,NA,NA,NA
"APUPF3D94XYUQ","Collector",1,110,"2016-03-09T14:36:45-08:00","4",1,"Stimuli/versionEstim.txt","Procedure/versionEproc.txt","Tetris",NA,"TUNE","","TUNE","OFF","Unrel_Restudy_L3","",111,"Study","No","3","Unrel_Restudy_L3","ON","",3000,NA,NA,NA,NA,NA,NA,NA,NA
"APUPF3D94XYUQ","Collector",1,111,"2016-03-09T14:36:49-08:00","4",1,"Stimuli/versionEstim.txt","Procedure/versionEproc.txt","Tetris",NA,"SHELTER","","SHELTER","OFF","Unrel_Restudy_L3","",120,"Study","No","3","Unrel_Restudy_L3","ON","",3000,NA,NA,NA,NA,NA,NA,NA,NA
"APUPF3D94XYUQ","Collector",1,112,"2016-03-09T14:36:53-08:00","4",1,"Stimuli/versionEstim.txt","Procedure/versionEproc.txt","Tetris",NA,"MANE","","MANE","OFF","Unrel_Restudy_L3","",116,"Study","No","3","Unrel_Restudy_L3","ON","",3000,NA,NA,NA,NA,NA,NA,NA,NA
"APUPF3D94XYUQ","Collector",1,113,"2016-03-09T14:36:57-08:00","4",1,"Stimuli/versionEstim.txt","Procedure/versionEproc.txt","Tetris",NA,"PALE","","PALE","OFF","Unrel_Restudy_L3","",104,"Study","No","3","Unrel_Restudy_L3","ON","",3000,NA,NA,NA,NA,NA,NA,NA,NA
"APUPF3D94XYUQ","Collector",1,114,"2016-03-09T14:37:01-08:00","4",1,"Stimuli/versionEstim.txt","Procedure/versionEproc.txt","Tetris",NA,"ARROW","","ARROW","OFF","Unrel_Restudy_L3","",107,"Study","No","3","Unrel_Restudy_L3","ON","",3000,NA,NA,NA,NA,NA,NA,NA,NA
"APUPF3D94XYUQ","Collector",1,115,"2016-03-09T14:37:06-08:00","5",1,"Stimuli/versionEstim.txt","Procedure/versionEproc.txt","Tetris",NA,"PRESS","","PRESS","OFF","Unrel_Restudy_L3","",117,"Study","No","3","Unrel_Restudy_L3","ON","",3000,NA,NA,NA,NA,NA,NA,NA,NA
"APUPF3D94XYUQ","Collector",1,116,"2016-03-09T14:37:10-08:00","4",1,"Stimuli/versionEstim.txt","Procedure/versionEproc.txt","Tetris",NA,"FLASK","","FLASK","OFF","Unrel_Restudy_L3","",103,"Study","No","3","Unrel_Restudy_L3","ON","",3000,NA,NA,NA,NA,NA,NA,NA,NA
"APUPF3D94XYUQ","Collector",1,117,"2016-03-09T14:37:15-08:00","5",1,"Stimuli/versionEstim.txt","Procedure/versionEproc.txt","Tetris",NA,"TORTOISE","","TORTOISE","OFF","Unrel_Restudy_L3","",112,"Study","No","3","Unrel_Restudy_L3","ON","",3000,NA,NA,NA,NA,NA,NA,NA,NA
"APUPF3D94XYUQ","Collector",1,118,"2016-03-09T14:37:19-08:00","4",1,"Stimuli/versionEstim.txt","Procedure/versionEproc.txt","Tetris",NA,"DINER","","DINER","OFF","Unrel_Restudy_L3","",115,"Study","No","3","Unrel_Restudy_L3","ON","",3000,NA,NA,NA,NA,NA,NA,NA,NA
"APUPF3D94XYUQ","Collector",1,119,"2016-03-09T14:37:24-08:00","4",1,"Stimuli/versionEstim.txt","Procedure/versionEproc.txt","Tetris",NA,"WASHCLOTH","","WASHCLOTH","OFF","Unrel_Restudy_L3","",118,"Study","No","3","Unrel_Restudy_L3","ON","",3000,NA,NA,NA,NA,NA,NA,NA,NA
"APUPF3D94XYUQ","Collector",1,120,"2016-03-09T14:37:28-08:00","5",1,"Stimuli/versionEstim.txt","Procedure/versionEproc.txt","Tetris",NA,"MOAT","","MOAT","OFF","Unrel_Restudy_L3","",110,"Study","No","3","Unrel_Restudy_L3","ON","",3000,NA,NA,NA,NA,NA,NA,NA,NA
"APUPF3D94XYUQ","Collector",1,121,"2016-03-09T14:37:35-08:00","7",1,"Stimuli/versionEstim.txt","Procedure/versionEproc.txt","Tetris",NA,"KAYAK","","KAYAK","OFF","Unrel_Restudy_L3","",119,"Study","No","3","Unrel_Restudy_L3","ON","",3000,NA,NA,NA,NA,NA,NA,NA,NA
"APUPF3D94XYUQ","Collector",1,122,"2016-03-09T14:37:39-08:00","4",1,"Stimuli/versionEstim.txt","Procedure/versionEproc.txt","Tetris",NA,"PATRON","","PATRON","OFF","Unrel_Restudy_L3","",114,"Study","No","3","Unrel_Restudy_L3","ON","",3000,NA,NA,NA,NA,NA,NA,NA,NA
"APUPF3D94XYUQ","Collector",1,123,"2016-03-09T14:37:43-08:00","4",1,"Stimuli/versionEstim.txt","Procedure/versionEproc.txt","Tetris",NA,"SKEWERS","","SKEWERS","OFF","Unrel_Restudy_L3","",108,"Study","No","3","Unrel_Restudy_L3","ON","",3000,NA,NA,NA,NA,NA,NA,NA,NA
"APUPF3D94XYUQ","Collector",1,124,"2016-03-09T14:37:48-08:00","5",1,"Stimuli/versionEstim.txt","Procedure/versionEproc.txt","Tetris",NA,"PASTE","","PASTE","OFF","Unrel_Restudy_L3","",113,"Study","No","3","Unrel_Restudy_L3","ON","",3000,NA,NA,NA,NA,NA,NA,NA,NA
"APUPF3D94XYUQ","Collector",1,125,"2016-03-09T14:37:52-08:00","4",1,"Stimuli/versionEstim.txt","Procedure/versionEproc.txt","Tetris",NA,"PICKLE","","PICKLE","OFF","Unrel_Restudy_L3","",102,"Study","No","3","Unrel_Restudy_L3","ON","",3000,NA,NA,NA,NA,NA,NA,NA,NA
"APUPF3D94XYUQ","Collector",1,126,"2016-03-09T14:37:56-08:00","4",1,"Stimuli/versionEstim.txt","Procedure/versionEproc.txt","Tetris",NA,"WIRE","","WIRE","OFF","Unrel_Restudy_L3","",105,"Study","No","3","Unrel_Restudy_L3","ON","",3000,NA,NA,NA,NA,NA,NA,NA,NA
"APUPF3D94XYUQ","Collector",1,127,"2016-03-09T14:37:58-08:00","2",1,"Stimuli/versionEstim.txt","Procedure/versionEproc.txt","Tetris",NA,"n/a","n/a","n/a","n/a","n/a","n/a",0,"Instruct","N/A","User","Click the button below for a new list.","OFF","",1480,NA,NA,NA,NA,NA,NA,NA,NA
"APUPF3D94XYUQ","Collector",1,128,"2016-03-09T14:38:03-08:00","5",1,"Stimuli/versionEstim.txt","Procedure/versionEproc.txt","Tetris",NA,"PARK","","PARK","OFF","Unrel_Restudy_L4","",128,"Study","No","3","Unrel_Restudy_L4","ON","",3000,NA,NA,NA,NA,NA,NA,NA,NA
"APUPF3D94XYUQ","Collector",1,129,"2016-03-09T14:38:08-08:00","5",1,"Stimuli/versionEstim.txt","Procedure/versionEproc.txt","Tetris",NA,"GALLERY","","GALLERY","OFF","Unrel_Restudy_L4","",137,"Study","No","3","Unrel_Restudy_L4","ON","",3000,NA,NA,NA,NA,NA,NA,NA,NA
"APUPF3D94XYUQ","Collector",1,130,"2016-03-09T14:38:12-08:00","4",1,"Stimuli/versionEstim.txt","Procedure/versionEproc.txt","Tetris",NA,"BEEHIVE","","BEEHIVE","OFF","Unrel_Restudy_L4","",135,"Study","No","3","Unrel_Restudy_L4","ON","",3000,NA,NA,NA,NA,NA,NA,NA,NA
"APUPF3D94XYUQ","Collector",1,131,"2016-03-09T14:38:16-08:00","4",1,"Stimuli/versionEstim.txt","Procedure/versionEproc.txt","Tetris",NA,"BANNER","","BANNER","OFF","Unrel_Restudy_L4","",136,"Study","No","3","Unrel_Restudy_L4","ON","",3000,NA,NA,NA,NA,NA,NA,NA,NA
"APUPF3D94XYUQ","Collector",1,132,"2016-03-09T14:38:21-08:00","5",1,"Stimuli/versionEstim.txt","Procedure/versionEproc.txt","Tetris",NA,"STATION","","STATION","OFF","Unrel_Restudy_L4","",127,"Study","No","3","Unrel_Restudy_L4","ON","",3000,NA,NA,NA,NA,NA,NA,NA,NA
"APUPF3D94XYUQ","Collector",1,133,"2016-03-09T14:38:25-08:00","4",1,"Stimuli/versionEstim.txt","Procedure/versionEproc.txt","Tetris",NA,"CEDAR","","CEDAR","OFF","Unrel_Restudy_L4","",134,"Study","No","3","Unrel_Restudy_L4","ON","",3000,NA,NA,NA,NA,NA,NA,NA,NA
"APUPF3D94XYUQ","Collector",1,134,"2016-03-09T14:38:29-08:00","4",1,"Stimuli/versionEstim.txt","Procedure/versionEproc.txt","Tetris",NA,"MAILBOX","","MAILBOX","OFF","Unrel_Restudy_L4","",140,"Study","No","3","Unrel_Restudy_L4","ON","",3000,NA,NA,NA,NA,NA,NA,NA,NA
"APUPF3D94XYUQ","Collector",1,135,"2016-03-09T14:38:33-08:00","4",1,"Stimuli/versionEstim.txt","Procedure/versionEproc.txt","Tetris",NA,"FERRY","","FERRY","OFF","Unrel_Restudy_L4","",122,"Study","No","3","Unrel_Restudy_L4","ON","",3000,NA,NA,NA,NA,NA,NA,NA,NA
"APUPF3D94XYUQ","Collector",1,136,"2016-03-09T14:38:37-08:00","4",1,"Stimuli/versionEstim.txt","Procedure/versionEproc.txt","Tetris",NA,"COOKIE","","COOKIE","OFF","Unrel_Restudy_L4","",133,"Study","No","3","Unrel_Restudy_L4","ON","",3000,NA,NA,NA,NA,NA,NA,NA,NA
"APUPF3D94XYUQ","Collector",1,137,"2016-03-09T14:38:41-08:00","4",1,"Stimuli/versionEstim.txt","Procedure/versionEproc.txt","Tetris",NA,"ESTATE","","ESTATE","OFF","Unrel_Restudy_L4","",123,"Study","No","3","Unrel_Restudy_L4","ON","",3000,NA,NA,NA,NA,NA,NA,NA,NA
"APUPF3D94XYUQ","Collector",1,138,"2016-03-09T14:38:46-08:00","5",1,"Stimuli/versionEstim.txt","Procedure/versionEproc.txt","Tetris",NA,"HATCHET","","HATCHET","OFF","Unrel_Restudy_L4","",138,"Study","No","3","Unrel_Restudy_L4","ON","",3000,NA,NA,NA,NA,NA,NA,NA,NA
"APUPF3D94XYUQ","Collector",1,139,"2016-03-09T14:38:50-08:00","4",1,"Stimuli/versionEstim.txt","Procedure/versionEproc.txt","Tetris",NA,"FLAKE","","FLAKE","OFF","Unrel_Restudy_L4","",129,"Study","No","3","Unrel_Restudy_L4","ON","",3000,NA,NA,NA,NA,NA,NA,NA,NA
"APUPF3D94XYUQ","Collector",1,140,"2016-03-09T14:38:54-08:00","4",1,"Stimuli/versionEstim.txt","Procedure/versionEproc.txt","Tetris",NA,"FALL","","FALL","OFF","Unrel_Restudy_L4","",141,"Study","No","3","Unrel_Restudy_L4","ON","",3000,NA,NA,NA,NA,NA,NA,NA,NA
"APUPF3D94XYUQ","Collector",1,141,"2016-03-09T14:38:58-08:00","4",1,"Stimuli/versionEstim.txt","Procedure/versionEproc.txt","Tetris",NA,"METAL","","METAL","OFF","Unrel_Restudy_L4","",130,"Study","No","3","Unrel_Restudy_L4","ON","",3000,NA,NA,NA,NA,NA,NA,NA,NA
"APUPF3D94XYUQ","Collector",1,142,"2016-03-09T14:39:03-08:00","5",1,"Stimuli/versionEstim.txt","Procedure/versionEproc.txt","Tetris",NA,"DUGOUT","","DUGOUT","OFF","Unrel_Restudy_L4","",125,"Study","No","3","Unrel_Restudy_L4","ON","",3000,NA,NA,NA,NA,NA,NA,NA,NA
"APUPF3D94XYUQ","Collector",1,143,"2016-03-09T14:39:07-08:00","4",1,"Stimuli/versionEstim.txt","Procedure/versionEproc.txt","Tetris",NA,"NUN","","NUN","OFF","Unrel_Restudy_L4","",126,"Study","No","3","Unrel_Restudy_L4","ON","",3000,NA,NA,NA,NA,NA,NA,NA,NA
"APUPF3D94XYUQ","Collector",1,144,"2016-03-09T14:39:11-08:00","4",1,"Stimuli/versionEstim.txt","Procedure/versionEproc.txt","Tetris",NA,"SEED","","SEED","OFF","Unrel_Restudy_L4","",139,"Study","No","3","Unrel_Restudy_L4","ON","",3000,NA,NA,NA,NA,NA,NA,NA,NA
"APUPF3D94XYUQ","Collector",1,145,"2016-03-09T14:39:15-08:00","4",1,"Stimuli/versionEstim.txt","Procedure/versionEproc.txt","Tetris",NA,"TRICYCLE","","TRICYCLE","OFF","Unrel_Restudy_L4","",131,"Study","No","3","Unrel_Restudy_L4","ON","",3000,NA,NA,NA,NA,NA,NA,NA,NA
"APUPF3D94XYUQ","Collector",1,146,"2016-03-09T14:39:19-08:00","4",1,"Stimuli/versionEstim.txt","Procedure/versionEproc.txt","Tetris",NA,"BAGPIPE","","BAGPIPE","OFF","Unrel_Restudy_L4","",132,"Study","No","3","Unrel_Restudy_L4","ON","",3000,NA,NA,NA,NA,NA,NA,NA,NA
"APUPF3D94XYUQ","Collector",1,147,"2016-03-09T14:39:23-08:00","4",1,"Stimuli/versionEstim.txt","Procedure/versionEproc.txt","Tetris",NA,"VINE","","VINE","OFF","Unrel_Restudy_L4","",124,"Study","No","3","Unrel_Restudy_L4","ON","",3000,NA,NA,NA,NA,NA,NA,NA,NA
"APUPF3D94XYUQ","Collector",1,148,"2016-03-09T14:39:31-08:00","8",1,"Stimuli/versionEstim.txt","Procedure/versionEproc.txt","Tetris",NA,"n/a","n/a","n/a","n/a","n/a","n/a",0,"Instruct","N/A","User","Restudy Instructions: You will now view this list again, but in a different order. Click the button below to begin.","OFF","",NA,NA,NA,NA,NA,NA,NA,NA,NA
"APUPF3D94XYUQ","Collector",1,149,"2016-03-09T14:39:35-08:00","4",1,"Stimuli/versionEstim.txt","Procedure/versionEproc.txt","Tetris",NA,"NUN","","NUN","OFF","Unrel_Restudy_L4","",146,"Study","No","3","Unrel_Restudy_L4","ON","",3000,NA,NA,NA,NA,NA,NA,NA,NA
"APUPF3D94XYUQ","Collector",1,150,"2016-03-09T14:39:39-08:00","4",1,"Stimuli/versionEstim.txt","Procedure/versionEproc.txt","Tetris",NA,"STATION","","STATION","OFF","Unrel_Restudy_L4","",147,"Study","No","3","Unrel_Restudy_L4","ON","",3000,NA,NA,NA,NA,NA,NA,NA,NA
"APUPF3D94XYUQ","Collector",1,151,"2016-03-09T14:39:44-08:00","5",1,"Stimuli/versionEstim.txt","Procedure/versionEproc.txt","Tetris",NA,"ESTATE","","ESTATE","OFF","Unrel_Restudy_L4","",143,"Study","No","3","Unrel_Restudy_L4","ON","",3000,NA,NA,NA,NA,NA,NA,NA,NA
"APUPF3D94XYUQ","Collector",1,152,"2016-03-09T14:39:48-08:00","4",1,"Stimuli/versionEstim.txt","Procedure/versionEproc.txt","Tetris",NA,"PARK","","PARK","OFF","Unrel_Restudy_L4","",148,"Study","No","3","Unrel_Restudy_L4","ON","",3000,NA,NA,NA,NA,NA,NA,NA,NA
"APUPF3D94XYUQ","Collector",1,153,"2016-03-09T14:39:53-08:00","5",1,"Stimuli/versionEstim.txt","Procedure/versionEproc.txt","Tetris",NA,"HATCHET","","HATCHET","OFF","Unrel_Restudy_L4","",158,"Study","No","3","Unrel_Restudy_L4","ON","",3000,NA,NA,NA,NA,NA,NA,NA,NA
"APUPF3D94XYUQ","Collector",1,154,"2016-03-09T14:39:57-08:00","4",1,"Stimuli/versionEstim.txt","Procedure/versionEproc.txt","Tetris",NA,"CEDAR","","CEDAR","OFF","Unrel_Restudy_L4","",154,"Study","No","3","Unrel_Restudy_L4","ON","",3000,NA,NA,NA,NA,NA,NA,NA,NA
"APUPF3D94XYUQ","Collector",1,155,"2016-03-09T14:40:01-08:00","4",1,"Stimuli/versionEstim.txt","Procedure/versionEproc.txt","Tetris",NA,"METAL","","METAL","OFF","Unrel_Restudy_L4","",150,"Study","No","3","Unrel_Restudy_L4","ON","",3000,NA,NA,NA,NA,NA,NA,NA,NA
"APUPF3D94XYUQ","Collector",1,156,"2016-03-09T14:40:05-08:00","4",1,"Stimuli/versionEstim.txt","Procedure/versionEproc.txt","Tetris",NA,"GALLERY","","GALLERY","OFF","Unrel_Restudy_L4","",157,"Study","No","3","Unrel_Restudy_L4","ON","",3000,NA,NA,NA,NA,NA,NA,NA,NA
"APUPF3D94XYUQ","Collector",1,157,"2016-03-09T14:40:10-08:00","5",1,"Stimuli/versionEstim.txt","Procedure/versionEproc.txt","Tetris",NA,"FLAKE","","FLAKE","OFF","Unrel_Restudy_L4","",149,"Study","No","3","Unrel_Restudy_L4","ON","",3000,NA,NA,NA,NA,NA,NA,NA,NA
"APUPF3D94XYUQ","Collector",1,158,"2016-03-09T14:40:14-08:00","4",1,"Stimuli/versionEstim.txt","Procedure/versionEproc.txt","Tetris",NA,"SEED","","SEED","OFF","Unrel_Restudy_L4","",159,"Study","No","3","Unrel_Restudy_L4","ON","",3000,NA,NA,NA,NA,NA,NA,NA,NA
"APUPF3D94XYUQ","Collector",1,159,"2016-03-09T14:40:18-08:00","4",1,"Stimuli/versionEstim.txt","Procedure/versionEproc.txt","Tetris",NA,"DUGOUT","","DUGOUT","OFF","Unrel_Restudy_L4","",145,"Study","No","3","Unrel_Restudy_L4","ON","",3000,NA,NA,NA,NA,NA,NA,NA,NA
"APUPF3D94XYUQ","Collector",1,160,"2016-03-09T14:40:22-08:00","4",1,"Stimuli/versionEstim.txt","Procedure/versionEproc.txt","Tetris",NA,"BANNER","","BANNER","OFF","Unrel_Restudy_L4","",156,"Study","No","3","Unrel_Restudy_L4","ON","",3000,NA,NA,NA,NA,NA,NA,NA,NA
"APUPF3D94XYUQ","Collector",1,161,"2016-03-09T14:40:26-08:00","4",1,"Stimuli/versionEstim.txt","Procedure/versionEproc.txt","Tetris",NA,"VINE","","VINE","OFF","Unrel_Restudy_L4","",144,"Study","No","3","Unrel_Restudy_L4","ON","",3000,NA,NA,NA,NA,NA,NA,NA,NA
"APUPF3D94XYUQ","Collector",1,162,"2016-03-09T14:40:30-08:00","4",1,"Stimuli/versionEstim.txt","Procedure/versionEproc.txt","Tetris",NA,"BEEHIVE","","BEEHIVE","OFF","Unrel_Restudy_L4","",155,"Study","No","3","Unrel_Restudy_L4","ON","",3000,NA,NA,NA,NA,NA,NA,NA,NA
"APUPF3D94XYUQ","Collector",1,163,"2016-03-09T14:40:35-08:00","5",1,"Stimuli/versionEstim.txt","Procedure/versionEproc.txt","Tetris",NA,"BAGPIPE","","BAGPIPE","OFF","Unrel_Restudy_L4","",152,"Study","No","3","Unrel_Restudy_L4","ON","",3000,NA,NA,NA,NA,NA,NA,NA,NA
"APUPF3D94XYUQ","Collector",1,164,"2016-03-09T14:40:39-08:00","4",1,"Stimuli/versionEstim.txt","Procedure/versionEproc.txt","Tetris",NA,"COOKIE","","COOKIE","OFF","Unrel_Restudy_L4","",153,"Study","No","3","Unrel_Restudy_L4","ON","",3000,NA,NA,NA,NA,NA,NA,NA,NA
"APUPF3D94XYUQ","Collector",1,165,"2016-03-09T14:40:43-08:00","4",1,"Stimuli/versionEstim.txt","Procedure/versionEproc.txt","Tetris",NA,"FALL","","FALL","OFF","Unrel_Restudy_L4","",161,"Study","No","3","Unrel_Restudy_L4","ON","",3000,NA,NA,NA,NA,NA,NA,NA,NA
"APUPF3D94XYUQ","Collector",1,166,"2016-03-09T14:40:47-08:00","4",1,"Stimuli/versionEstim.txt","Procedure/versionEproc.txt","Tetris",NA,"FERRY","","FERRY","OFF","Unrel_Restudy_L4","",142,"Study","No","3","Unrel_Restudy_L4","ON","",3000,NA,NA,NA,NA,NA,NA,NA,NA
"APUPF3D94XYUQ","Collector",1,167,"2016-03-09T14:40:52-08:00","5",1,"Stimuli/versionEstim.txt","Procedure/versionEproc.txt","Tetris",NA,"MAILBOX","","MAILBOX","OFF","Unrel_Restudy_L4","",160,"Study","No","3","Unrel_Restudy_L4","ON","",3000,NA,NA,NA,NA,NA,NA,NA,NA
"APUPF3D94XYUQ","Collector",1,168,"2016-03-09T14:40:57-08:00","5",1,"Stimuli/versionEstim.txt","Procedure/versionEproc.txt","Tetris",NA,"TRICYCLE","","TRICYCLE","OFF","Unrel_Restudy_L4","",151,"Study","No","3","Unrel_Restudy_L4","ON","",3000,NA,NA,NA,NA,NA,NA,NA,NA
"APUPF3D94XYUQ","Collector",1,169,"2016-03-09T14:41:11-08:00","14",1,"Stimuli/versionEstim.txt","Procedure/versionEproc.txt","Tetris",NA,"n/a","n/a","n/a","n/a","n/a","n/a",0,"Instruct","N/A","User","Click the button below for a new list.","OFF","",11540,NA,NA,NA,NA,NA,NA,NA,NA
"APUPF3D94XYUQ","Collector",1,170,"2016-03-09T14:41:15-08:00","4",1,"Stimuli/versionEstim.txt","Procedure/versionEproc.txt","Tetris",NA,"DOVE","","DOVE","OFF","Cat_Restudy_L5","",177,"Study","No","3","Cat_Restudy_L5","ON","",3000,NA,NA,NA,NA,NA,NA,NA,NA
"APUPF3D94XYUQ","Collector",1,171,"2016-03-09T14:41:19-08:00","4",1,"Stimuli/versionEstim.txt","Procedure/versionEproc.txt","Tetris",NA,"FALCON","","FALCON","OFF","Cat_Restudy_L5","",181,"Study","No","3","Cat_Restudy_L5","ON","",3000,NA,NA,NA,NA,NA,NA,NA,NA
"APUPF3D94XYUQ","Collector",1,172,"2016-03-09T14:41:23-08:00","4",1,"Stimuli/versionEstim.txt","Procedure/versionEproc.txt","Tetris",NA,"DUCK","","DUCK","OFF","Cat_Restudy_L5","",178,"Study","No","3","Cat_Restudy_L5","ON","",3000,NA,NA,NA,NA,NA,NA,NA,NA
"APUPF3D94XYUQ","Collector",1,173,"2016-03-09T14:41:27-08:00","4",1,"Stimuli/versionEstim.txt","Procedure/versionEproc.txt","Tetris",NA,"WOODPECKER","","WOODPECKER","OFF","Cat_Restudy_L5","",173,"Study","No","3","Cat_Restudy_L5","ON","",3000,NA,NA,NA,NA,NA,NA,NA,NA
"APUPF3D94XYUQ","Collector",1,174,"2016-03-09T14:41:31-08:00","4",1,"Stimuli/versionEstim.txt","Procedure/versionEproc.txt","Tetris",NA,"BLUEBIRD","","BLUEBIRD","OFF","Cat_Restudy_L5","",164,"Study","No","3","Cat_Restudy_L5","ON","",3000,NA,NA,NA,NA,NA,NA,NA,NA
"APUPF3D94XYUQ","Collector",1,175,"2016-03-09T14:41:36-08:00","5",1,"Stimuli/versionEstim.txt","Procedure/versionEproc.txt","Tetris",NA,"VULTURE","","VULTURE","OFF","Cat_Restudy_L5","",174,"Study","No","3","Cat_Restudy_L5","ON","",3000,NA,NA,NA,NA,NA,NA,NA,NA
"APUPF3D94XYUQ","Collector",1,176,"2016-03-09T14:41:40-08:00","4",1,"Stimuli/versionEstim.txt","Procedure/versionEproc.txt","Tetris",NA,"SWALLOW","","SWALLOW","OFF","Cat_Restudy_L5","",175,"Study","No","3","Cat_Restudy_L5","ON","",3000,NA,NA,NA,NA,NA,NA,NA,NA
"APUPF3D94XYUQ","Collector",1,177,"2016-03-09T14:41:44-08:00","4",1,"Stimuli/versionEstim.txt","Procedure/versionEproc.txt","Tetris",NA,"ORIOLE","","ORIOLE","OFF","Cat_Restudy_L5","",168,"Study","No","3","Cat_Restudy_L5","ON","",3000,NA,NA,NA,NA,NA,NA,NA,NA
"APUPF3D94XYUQ","Collector",1,178,"2016-03-09T14:41:48-08:00","4",1,"Stimuli/versionEstim.txt","Procedure/versionEproc.txt","Tetris",NA,"HUMMINGBIRD","","HUMMINGBIRD","OFF","Cat_Restudy_L5","",171,"Study","No","3","Cat_Restudy_L5","ON","",3000,NA,NA,NA,NA,NA,NA,NA,NA
"APUPF3D94XYUQ","Collector",1,179,"2016-03-09T14:41:52-08:00","4",1,"Stimuli/versionEstim.txt","Procedure/versionEproc.txt","Tetris",NA,"OWL","","OWL","OFF","Cat_Restudy_L5","",179,"Study","No","3","Cat_Restudy_L5","ON","",3000,NA,NA,NA,NA,NA,NA,NA,NA
"APUPF3D94XYUQ","Collector",1,180,"2016-03-09T14:41:56-08:00","4",1,"Stimuli/versionEstim.txt","Procedure/versionEproc.txt","Tetris",NA,"SEAGULL","","SEAGULL","OFF","Cat_Restudy_L5","",180,"Study","No","3","Cat_Restudy_L5","ON","",3000,NA,NA,NA,NA,NA,NA,NA,NA
"APUPF3D94XYUQ","Collector",1,181,"2016-03-09T14:42:01-08:00","5",1,"Stimuli/versionEstim.txt","Procedure/versionEproc.txt","Tetris",NA,"STARLING","","STARLING","OFF","Cat_Restudy_L5","",172,"Study","No","3","Cat_Restudy_L5","ON","",3000,NA,NA,NA,NA,NA,NA,NA,NA
"APUPF3D94XYUQ","Collector",1,182,"2016-03-09T14:42:06-08:00","5",1,"Stimuli/versionEstim.txt","Procedure/versionEproc.txt","Tetris",NA,"CHICKEN","","CHICKEN","OFF","Cat_Restudy_L5","",176,"Study","No","3","Cat_Restudy_L5","ON","",3000,NA,NA,NA,NA,NA,NA,NA,NA
"APUPF3D94XYUQ","Collector",1,183,"2016-03-09T14:42:10-08:00","4",1,"Stimuli/versionEstim.txt","Procedure/versionEproc.txt","Tetris",NA,"WREN","","WREN","OFF","Cat_Restudy_L5","",167,"Study","No","3","Cat_Restudy_L5","ON","",3000,NA,NA,NA,NA,NA,NA,NA,NA
"APUPF3D94XYUQ","Collector",1,184,"2016-03-09T14:42:14-08:00","4",1,"Stimuli/versionEstim.txt","Procedure/versionEproc.txt","Tetris",NA,"PARROT","","PARROT","OFF","Cat_Restudy_L5","",169,"Study","No","3","Cat_Restudy_L5","ON","",3000,NA,NA,NA,NA,NA,NA,NA,NA
"APUPF3D94XYUQ","Collector",1,185,"2016-03-09T14:42:18-08:00","4",1,"Stimuli/versionEstim.txt","Procedure/versionEproc.txt","Tetris",NA,"EAGLE","","EAGLE","OFF","Cat_Restudy_L5","",163,"Study","No","3","Cat_Restudy_L5","ON","",3000,NA,NA,NA,NA,NA,NA,NA,NA
"APUPF3D94XYUQ","Collector",1,186,"2016-03-09T14:42:22-08:00","4",1,"Stimuli/versionEstim.txt","Procedure/versionEproc.txt","Tetris",NA,"PARAKEET","","PARAKEET","OFF","Cat_Restudy_L5","",165,"Study","No","3","Cat_Restudy_L5","ON","",3000,NA,NA,NA,NA,NA,NA,NA,NA
"APUPF3D94XYUQ","Collector",1,187,"2016-03-09T14:42:26-08:00","4",1,"Stimuli/versionEstim.txt","Procedure/versionEproc.txt","Tetris",NA,"PIGEON","","PIGEON","OFF","Cat_Restudy_L5","",170,"Study","No","3","Cat_Restudy_L5","ON","",3000,NA,NA,NA,NA,NA,NA,NA,NA
"APUPF3D94XYUQ","Collector",1,188,"2016-03-09T14:42:30-08:00","4",1,"Stimuli/versionEstim.txt","Procedure/versionEproc.txt","Tetris",NA,"BLACKBIRD","","BLACKBIRD","OFF","Cat_Restudy_L5","",166,"Study","No","3","Cat_Restudy_L5","ON","",3000,NA,NA,NA,NA,NA,NA,NA,NA
"APUPF3D94XYUQ","Collector",1,189,"2016-03-09T14:42:35-08:00","5",1,"Stimuli/versionEstim.txt","Procedure/versionEproc.txt","Tetris",NA,"CARDINAL","","CARDINAL","OFF","Cat_Restudy_L5","",162,"Study","No","3","Cat_Restudy_L5","ON","",3000,NA,NA,NA,NA,NA,NA,NA,NA
"APUPF3D94XYUQ","Collector",1,190,"2016-03-09T14:42:43-08:00","8",1,"Stimuli/versionEstim.txt","Procedure/versionEproc.txt","Tetris",NA,"n/a","n/a","n/a","n/a","n/a","n/a",0,"Instruct","N/A","User","Restudy Instructions: You will now view this list again, but in a different order. Click the button below to begin.","OFF","",5300,NA,NA,NA,NA,NA,NA,NA,NA
"APUPF3D94XYUQ","Collector",1,191,"2016-03-09T14:42:47-08:00","4",1,"Stimuli/versionEstim.txt","Procedure/versionEproc.txt","Tetris",NA,"CARDINAL","","CARDINAL","OFF","Cat_Restudy_L5","",182,"Study","No","3","Cat_Restudy_L5","ON","",3000,NA,NA,NA,NA,NA,NA,NA,NA
"APUPF3D94XYUQ","Collector",1,192,"2016-03-09T14:42:51-08:00","4",1,"Stimuli/versionEstim.txt","Procedure/versionEproc.txt","Tetris",NA,"WREN","","WREN","OFF","Cat_Restudy_L5","",187,"Study","No","3","Cat_Restudy_L5","ON","",3000,NA,NA,NA,NA,NA,NA,NA,NA
"APUPF3D94XYUQ","Collector",1,193,"2016-03-09T14:42:56-08:00","5",1,"Stimuli/versionEstim.txt","Procedure/versionEproc.txt","Tetris",NA,"HUMMINGBIRD","","HUMMINGBIRD","OFF","Cat_Restudy_L5","",191,"Study","No","3","Cat_Restudy_L5","ON","",3000,NA,NA,NA,NA,NA,NA,NA,NA
"APUPF3D94XYUQ","Collector",1,194,"2016-03-09T14:43:00-08:00","4",1,"Stimuli/versionEstim.txt","Procedure/versionEproc.txt","Tetris",NA,"ORIOLE","","ORIOLE","OFF","Cat_Restudy_L5","",188,"Study","No","3","Cat_Restudy_L5","ON","",3000,NA,NA,NA,NA,NA,NA,NA,NA
"APUPF3D94XYUQ","Collector",1,195,"2016-03-09T14:43:04-08:00","4",1,"Stimuli/versionEstim.txt","Procedure/versionEproc.txt","Tetris",NA,"SEAGULL","","SEAGULL","OFF","Cat_Restudy_L5","",200,"Study","No","3","Cat_Restudy_L5","ON","",3000,NA,NA,NA,NA,NA,NA,NA,NA
"APUPF3D94XYUQ","Collector",1,196,"2016-03-09T14:43:08-08:00","4",1,"Stimuli/versionEstim.txt","Procedure/versionEproc.txt","Tetris",NA,"PIGEON","","PIGEON","OFF","Cat_Restudy_L5","",190,"Study","No","3","Cat_Restudy_L5","ON","",3000,NA,NA,NA,NA,NA,NA,NA,NA
"APUPF3D94XYUQ","Collector",1,197,"2016-03-09T14:43:12-08:00","4",1,"Stimuli/versionEstim.txt","Procedure/versionEproc.txt","Tetris",NA,"OWL","","OWL","OFF","Cat_Restudy_L5","",199,"Study","No","3","Cat_Restudy_L5","ON","",3000,NA,NA,NA,NA,NA,NA,NA,NA
"APUPF3D94XYUQ","Collector",1,198,"2016-03-09T14:43:16-08:00","4",1,"Stimuli/versionEstim.txt","Procedure/versionEproc.txt","Tetris",NA,"DUCK","","DUCK","OFF","Cat_Restudy_L5","",198,"Study","No","3","Cat_Restudy_L5","ON","",3000,NA,NA,NA,NA,NA,NA,NA,NA
"APUPF3D94XYUQ","Collector",1,199,"2016-03-09T14:43:20-08:00","4",1,"Stimuli/versionEstim.txt","Procedure/versionEproc.txt","Tetris",NA,"DOVE","","DOVE","OFF","Cat_Restudy_L5","",197,"Study","No","3","Cat_Restudy_L5","ON","",3000,NA,NA,NA,NA,NA,NA,NA,NA
"APUPF3D94XYUQ","Collector",1,200,"2016-03-09T14:43:24-08:00","4",1,"Stimuli/versionEstim.txt","Procedure/versionEproc.txt","Tetris",NA,"FALCON","","FALCON","OFF","Cat_Restudy_L5","",201,"Study","No","3","Cat_Restudy_L5","ON","",3000,NA,NA,NA,NA,NA,NA,NA,NA
"APUPF3D94XYUQ","Collector",1,201,"2016-03-09T14:43:28-08:00","4",1,"Stimuli/versionEstim.txt","Procedure/versionEproc.txt","Tetris",NA,"EAGLE","","EAGLE","OFF","Cat_Restudy_L5","",183,"Study","No","3","Cat_Restudy_L5","ON","",3000,NA,NA,NA,NA,NA,NA,NA,NA
"APUPF3D94XYUQ","Collector",1,202,"2016-03-09T14:43:32-08:00","4",1,"Stimuli/versionEstim.txt","Procedure/versionEproc.txt","Tetris",NA,"BLUEBIRD","","BLUEBIRD","OFF","Cat_Restudy_L5","",184,"Study","No","3","Cat_Restudy_L5","ON","",3000,NA,NA,NA,NA,NA,NA,NA,NA
"APUPF3D94XYUQ","Collector",1,203,"2016-03-09T14:43:37-08:00","5",1,"Stimuli/versionEstim.txt","Procedure/versionEproc.txt","Tetris",NA,"STARLING","","STARLING","OFF","Cat_Restudy_L5","",192,"Study","No","3","Cat_Restudy_L5","ON","",3000,NA,NA,NA,NA,NA,NA,NA,NA
"APUPF3D94XYUQ","Collector",1,204,"2016-03-09T14:43:41-08:00","4",1,"Stimuli/versionEstim.txt","Procedure/versionEproc.txt","Tetris",NA,"BLACKBIRD","","BLACKBIRD","OFF","Cat_Restudy_L5","",186,"Study","No","3","Cat_Restudy_L5","ON","",3000,NA,NA,NA,NA,NA,NA,NA,NA
"APUPF3D94XYUQ","Collector",1,205,"2016-03-09T14:43:45-08:00","4",1,"Stimuli/versionEstim.txt","Procedure/versionEproc.txt","Tetris",NA,"PARAKEET","","PARAKEET","OFF","Cat_Restudy_L5","",185,"Study","No","3","Cat_Restudy_L5","ON","",3000,NA,NA,NA,NA,NA,NA,NA,NA
"APUPF3D94XYUQ","Collector",1,206,"2016-03-09T14:43:53-08:00","8",1,"Stimuli/versionEstim.txt","Procedure/versionEproc.txt","Tetris",NA,"PARROT","","PARROT","OFF","Cat_Restudy_L5","",189,"Study","No","3","Cat_Restudy_L5","ON","",3000,NA,NA,NA,NA,NA,NA,NA,NA
"APUPF3D94XYUQ","Collector",1,207,"2016-03-09T14:43:57-08:00","4",1,"Stimuli/versionEstim.txt","Procedure/versionEproc.txt","Tetris",NA,"VULTURE","","VULTURE","OFF","Cat_Restudy_L5","",194,"Study","No","3","Cat_Restudy_L5","ON","",3000,NA,NA,NA,NA,NA,NA,NA,NA
"APUPF3D94XYUQ","Collector",1,208,"2016-03-09T14:44:01-08:00","4",1,"Stimuli/versionEstim.txt","Procedure/versionEproc.txt","Tetris",NA,"SWALLOW","","SWALLOW","OFF","Cat_Restudy_L5","",195,"Study","No","3","Cat_Restudy_L5","ON","",3000,NA,NA,NA,NA,NA,NA,NA,NA
"APUPF3D94XYUQ","Collector",1,209,"2016-03-09T14:44:05-08:00","4",1,"Stimuli/versionEstim.txt","Procedure/versionEproc.txt","Tetris",NA,"WOODPECKER","","WOODPECKER","OFF","Cat_Restudy_L5","",193,"Study","No","3","Cat_Restudy_L5","ON","",3000,NA,NA,NA,NA,NA,NA,NA,NA
"APUPF3D94XYUQ","Collector",1,210,"2016-03-09T14:44:09-08:00","4",1,"Stimuli/versionEstim.txt","Procedure/versionEproc.txt","Tetris",NA,"CHICKEN","","CHICKEN","OFF","Cat_Restudy_L5","",196,"Study","No","3","Cat_Restudy_L5","ON","",3000,NA,NA,NA,NA,NA,NA,NA,NA
"APUPF3D94XYUQ","Collector",1,211,"2016-03-09T14:44:14-08:00","5",1,"Stimuli/versionEstim.txt","Procedure/versionEproc.txt","Tetris",NA,"n/a","n/a","n/a","n/a","n/a","n/a",0,"Instruct","N/A","User","Click the button below for a new list.","OFF","",3730,NA,NA,NA,NA,NA,NA,NA,NA
"APUPF3D94XYUQ","Collector",1,212,"2016-03-09T14:44:18-08:00","4",1,"Stimuli/versionEstim.txt","Procedure/versionEproc.txt","Tetris",NA,"POEM","","POEM","OFF","AdHoc_Restudy_L6","",212,"Study","No","3","AdHoc_Restudy_L6","ON","",3000,NA,NA,NA,NA,NA,NA,NA,NA
"APUPF3D94XYUQ","Collector",1,213,"2016-03-09T14:44:22-08:00","4",1,"Stimuli/versionEstim.txt","Procedure/versionEproc.txt","Tetris",NA,"POSTER","","POSTER","OFF","AdHoc_Restudy_L6","",216,"Study","No","3","AdHoc_Restudy_L6","ON","",3000,NA,NA,NA,NA,NA,NA,NA,NA
"APUPF3D94XYUQ","Collector",1,214,"2016-03-09T14:44:26-08:00","4",1,"Stimuli/versionEstim.txt","Procedure/versionEproc.txt","Tetris",NA,"BULLETIN","","BULLETIN","OFF","AdHoc_Restudy_L6","",217,"Study","No","3","AdHoc_Restudy_L6","ON","",3000,NA,NA,NA,NA,NA,NA,NA,NA
"APUPF3D94XYUQ","Collector",1,215,"2016-03-09T14:44:30-08:00","4",1,"Stimuli/versionEstim.txt","Procedure/versionEproc.txt","Tetris",NA,"ESSAY","","ESSAY","OFF","AdHoc_Restudy_L6","",210,"Study","No","3","AdHoc_Restudy_L6","ON","",3000,NA,NA,NA,NA,NA,NA,NA,NA
"APUPF3D94XYUQ","Collector",1,216,"2016-03-09T14:44:34-08:00","4",1,"Stimuli/versionEstim.txt","Procedure/versionEproc.txt","Tetris",NA,"ARTICLE","","ARTICLE","OFF","AdHoc_Restudy_L6","",206,"Study","No","3","AdHoc_Restudy_L6","ON","",3000,NA,NA,NA,NA,NA,NA,NA,NA
"APUPF3D94XYUQ","Collector",1,217,"2016-03-09T14:44:39-08:00","5",1,"Stimuli/versionEstim.txt","Procedure/versionEproc.txt","Tetris",NA,"DICTIONARY","","DICTIONARY","OFF","AdHoc_Restudy_L6","",219,"Study","No","3","AdHoc_Restudy_L6","ON","",3000,NA,NA,NA,NA,NA,NA,NA,NA
"APUPF3D94XYUQ","Collector",1,218,"2016-03-09T14:44:43-08:00","4",1,"Stimuli/versionEstim.txt","Procedure/versionEproc.txt","Tetris",NA,"PLAY","","PLAY","OFF","AdHoc_Restudy_L6","",208,"Study","No","3","AdHoc_Restudy_L6","ON","",3000,NA,NA,NA,NA,NA,NA,NA,NA
"APUPF3D94XYUQ","Collector",1,219,"2016-03-09T14:44:47-08:00","4",1,"Stimuli/versionEstim.txt","Procedure/versionEproc.txt","Tetris",NA,"BROCHURE","","BROCHURE","OFF","AdHoc_Restudy_L6","",218,"Study","No","3","AdHoc_Restudy_L6","ON","",3000,NA,NA,NA,NA,NA,NA,NA,NA
"APUPF3D94XYUQ","Collector",1,220,"2016-03-09T14:44:51-08:00","4",1,"Stimuli/versionEstim.txt","Procedure/versionEproc.txt","Tetris",NA,"PAPERBACK","","PAPERBACK","OFF","AdHoc_Restudy_L6","",215,"Study","No","3","AdHoc_Restudy_L6","ON","",3000,NA,NA,NA,NA,NA,NA,NA,NA
"APUPF3D94XYUQ","Collector",1,221,"2016-03-09T14:44:55-08:00","4",1,"Stimuli/versionEstim.txt","Procedure/versionEproc.txt","Tetris",NA,"COMIC","","COMIC","OFF","AdHoc_Restudy_L6","",204,"Study","No","3","AdHoc_Restudy_L6","ON","",3000,NA,NA,NA,NA,NA,NA,NA,NA
"APUPF3D94XYUQ","Collector",1,222,"2016-03-09T14:44:59-08:00","4",1,"Stimuli/versionEstim.txt","Procedure/versionEproc.txt","Tetris",NA,"LEAFLET","","LEAFLET","OFF","AdHoc_Restudy_L6","",213,"Study","No","3","AdHoc_Restudy_L6","ON","",3000,NA,NA,NA,NA,NA,NA,NA,NA
"APUPF3D94XYUQ","Collector",1,223,"2016-03-09T14:45:04-08:00","5",1,"Stimuli/versionEstim.txt","Procedure/versionEproc.txt","Tetris",NA,"BIOGRAPHY","","BIOGRAPHY","OFF","AdHoc_Restudy_L6","",221,"Study","No","3","AdHoc_Restudy_L6","ON","",3000,NA,NA,NA,NA,NA,NA,NA,NA
"APUPF3D94XYUQ","Collector",1,224,"2016-03-09T14:45:08-08:00","4",1,"Stimuli/versionEstim.txt","Procedure/versionEproc.txt","Tetris",NA,"ENCYCLOPEDIA","","ENCYCLOPEDIA","OFF","AdHoc_Restudy_L6","",209,"Study","No","3","AdHoc_Restudy_L6","ON","",3000,NA,NA,NA,NA,NA,NA,NA,NA
"APUPF3D94XYUQ","Collector",1,225,"2016-03-09T14:45:12-08:00","4",1,"Stimuli/versionEstim.txt","Procedure/versionEproc.txt","Tetris",NA,"NOTE","","NOTE","OFF","AdHoc_Restudy_L6","",220,"Study","No","3","AdHoc_Restudy_L6","ON","",3000,NA,NA,NA,NA,NA,NA,NA,NA
"APUPF3D94XYUQ","Collector",1,226,"2016-03-09T14:45:16-08:00","4",1,"Stimuli/versionEstim.txt","Procedure/versionEproc.txt","Tetris",NA,"TEXT","","TEXT","OFF","AdHoc_Restudy_L6","",202,"Study","No","3","AdHoc_Restudy_L6","ON","",3000,NA,NA,NA,NA,NA,NA,NA,NA
"APUPF3D94XYUQ","Collector",1,227,"2016-03-09T14:45:20-08:00","4",1,"Stimuli/versionEstim.txt","Procedure/versionEproc.txt","Tetris",NA,"PERIODICAL","","PERIODICAL","OFF","AdHoc_Restudy_L6","",211,"Study","No","3","AdHoc_Restudy_L6","ON","",3000,NA,NA,NA,NA,NA,NA,NA,NA
"APUPF3D94XYUQ","Collector",1,228,"2016-03-09T14:45:24-08:00","4",1,"Stimuli/versionEstim.txt","Procedure/versionEproc.txt","Tetris",NA,"PAPER ","","PAPER ","OFF","AdHoc_Restudy_L6","",203,"Study","No","3","AdHoc_Restudy_L6","ON","",3000,NA,NA,NA,NA,NA,NA,NA,NA
"APUPF3D94XYUQ","Collector",1,229,"2016-03-09T14:45:29-08:00","5",1,"Stimuli/versionEstim.txt","Procedure/versionEproc.txt","Tetris",NA,"JOURNAL","","JOURNAL","OFF","AdHoc_Restudy_L6","",205,"Study","No","3","AdHoc_Restudy_L6","ON","",3000,NA,NA,NA,NA,NA,NA,NA,NA
"APUPF3D94XYUQ","Collector",1,230,"2016-03-09T14:45:33-08:00","4",1,"Stimuli/versionEstim.txt","Procedure/versionEproc.txt","Tetris",NA,"FICTION","","FICTION","OFF","AdHoc_Restudy_L6","",214,"Study","No","3","AdHoc_Restudy_L6","ON","",3000,NA,NA,NA,NA,NA,NA,NA,NA
"APUPF3D94XYUQ","Collector",1,231,"2016-03-09T14:45:37-08:00","4",1,"Stimuli/versionEstim.txt","Procedure/versionEproc.txt","Tetris",NA,"LETTER","","LETTER","OFF","AdHoc_Restudy_L6","",207,"Study","No","3","AdHoc_Restudy_L6","ON","",3000,NA,NA,NA,NA,NA,NA,NA,NA
"APUPF3D94XYUQ","Collector",1,232,"2016-03-09T14:45:40-08:00","3",1,"Stimuli/versionEstim.txt","Procedure/versionEproc.txt","Tetris",NA,"n/a","n/a","n/a","n/a","n/a","n/a",0,"Instruct","N/A","User","Restudy Instructions: You will now view this list again, but in a different order. Click the button below to begin.","OFF","",2110,NA,NA,NA,NA,NA,NA,NA,NA
"APUPF3D94XYUQ","Collector",1,233,"2016-03-09T14:45:44-08:00","4",1,"Stimuli/versionEstim.txt","Procedure/versionEproc.txt","Tetris",NA,"PLAY","","PLAY","OFF","AdHoc_Restudy_L6","",228,"Study","No","3","AdHoc_Restudy_L6","ON","",3000,NA,NA,NA,NA,NA,NA,NA,NA
"APUPF3D94XYUQ","Collector",1,234,"2016-03-09T14:45:50-08:00","6",1,"Stimuli/versionEstim.txt","Procedure/versionEproc.txt","Tetris",NA,"FICTION","","FICTION","OFF","AdHoc_Restudy_L6","",234,"Study","No","3","AdHoc_Restudy_L6","ON","",3000,NA,NA,NA,NA,NA,NA,NA,NA
"APUPF3D94XYUQ","Collector",1,235,"2016-03-09T14:45:55-08:00","5",1,"Stimuli/versionEstim.txt","Procedure/versionEproc.txt","Tetris",NA,"JOURNAL","","JOURNAL","OFF","AdHoc_Restudy_L6","",225,"Study","No","3","AdHoc_Restudy_L6","ON","",3000,NA,NA,NA,NA,NA,NA,NA,NA
"APUPF3D94XYUQ","Collector",1,236,"2016-03-09T14:45:59-08:00","4",1,"Stimuli/versionEstim.txt","Procedure/versionEproc.txt","Tetris",NA,"BROCHURE","","BROCHURE","OFF","AdHoc_Restudy_L6","",238,"Study","No","3","AdHoc_Restudy_L6","ON","",3000,NA,NA,NA,NA,NA,NA,NA,NA
"APUPF3D94XYUQ","Collector",1,237,"2016-03-09T14:46:03-08:00","4",1,"Stimuli/versionEstim.txt","Procedure/versionEproc.txt","Tetris",NA,"PAPERBACK","","PAPERBACK","OFF","AdHoc_Restudy_L6","",235,"Study","No","3","AdHoc_Restudy_L6","ON","",3000,NA,NA,NA,NA,NA,NA,NA,NA
"APUPF3D94XYUQ","Collector",1,238,"2016-03-09T14:46:07-08:00","4",1,"Stimuli/versionEstim.txt","Procedure/versionEproc.txt","Tetris",NA,"LETTER","","LETTER","OFF","AdHoc_Restudy_L6","",227,"Study","No","3","AdHoc_Restudy_L6","ON","",3000,NA,NA,NA,NA,NA,NA,NA,NA
"APUPF3D94XYUQ","Collector",1,239,"2016-03-09T14:46:11-08:00","4",1,"Stimuli/versionEstim.txt","Procedure/versionEproc.txt","Tetris",NA,"ARTICLE","","ARTICLE","OFF","AdHoc_Restudy_L6","",226,"Study","No","3","AdHoc_Restudy_L6","ON","",3000,NA,NA,NA,NA,NA,NA,NA,NA
"APUPF3D94XYUQ","Collector",1,240,"2016-03-09T14:46:16-08:00","5",1,"Stimuli/versionEstim.txt","Procedure/versionEproc.txt","Tetris",NA,"LEAFLET","","LEAFLET","OFF","AdHoc_Restudy_L6","",233,"Study","No","3","AdHoc_Restudy_L6","ON","",3000,NA,NA,NA,NA,NA,NA,NA,NA
"APUPF3D94XYUQ","Collector",1,241,"2016-03-09T14:46:20-08:00","4",1,"Stimuli/versionEstim.txt","Procedure/versionEproc.txt","Tetris",NA,"DICTIONARY","","DICTIONARY","OFF","AdHoc_Restudy_L6","",239,"Study","No","3","AdHoc_Restudy_L6","ON","",3000,NA,NA,NA,NA,NA,NA,NA,NA
"APUPF3D94XYUQ","Collector",1,242,"2016-03-09T14:46:24-08:00","4",1,"Stimuli/versionEstim.txt","Procedure/versionEproc.txt","Tetris",NA,"POEM","","POEM","OFF","AdHoc_Restudy_L6","",232,"Study","No","3","AdHoc_Restudy_L6","ON","",3000,NA,NA,NA,NA,NA,NA,NA,NA
"APUPF3D94XYUQ","Collector",1,243,"2016-03-09T14:46:28-08:00","4",1,"Stimuli/versionEstim.txt","Procedure/versionEproc.txt","Tetris",NA,"BULLETIN","","BULLETIN","OFF","AdHoc_Restudy_L6","",237,"Study","No","3","AdHoc_Restudy_L6","ON","",3000,NA,NA,NA,NA,NA,NA,NA,NA
"APUPF3D94XYUQ","Collector",1,244,"2016-03-09T14:46:32-08:00","4",1,"Stimuli/versionEstim.txt","Procedure/versionEproc.txt","Tetris",NA,"NOTE","","NOTE","OFF","AdHoc_Restudy_L6","",240,"Study","No","3","AdHoc_Restudy_L6","ON","",3000,NA,NA,NA,NA,NA,NA,NA,NA
"APUPF3D94XYUQ","Collector",1,245,"2016-03-09T14:46:36-08:00","4",1,"Stimuli/versionEstim.txt","Procedure/versionEproc.txt","Tetris",NA,"BIOGRAPHY","","BIOGRAPHY","OFF","AdHoc_Restudy_L6","",241,"Study","No","3","AdHoc_Restudy_L6","ON","",3000,NA,NA,NA,NA,NA,NA,NA,NA
"APUPF3D94XYUQ","Collector",1,246,"2016-03-09T14:46:40-08:00","4",1,"Stimuli/versionEstim.txt","Procedure/versionEproc.txt","Tetris",NA,"PAPER ","","PAPER ","OFF","AdHoc_Restudy_L6","",223,"Study","No","3","AdHoc_Restudy_L6","ON","",3000,NA,NA,NA,NA,NA,NA,NA,NA
"APUPF3D94XYUQ","Collector",1,247,"2016-03-09T14:46:44-08:00","4",1,"Stimuli/versionEstim.txt","Procedure/versionEproc.txt","Tetris",NA,"PERIODICAL","","PERIODICAL","OFF","AdHoc_Restudy_L6","",231,"Study","No","3","AdHoc_Restudy_L6","ON","",3000,NA,NA,NA,NA,NA,NA,NA,NA
"APUPF3D94XYUQ","Collector",1,248,"2016-03-09T14:46:50-08:00","6",1,"Stimuli/versionEstim.txt","Procedure/versionEproc.txt","Tetris",NA,"POSTER","","POSTER","OFF","AdHoc_Restudy_L6","",236,"Study","No","3","AdHoc_Restudy_L6","ON","",3000,NA,NA,NA,NA,NA,NA,NA,NA
"APUPF3D94XYUQ","Collector",1,249,"2016-03-09T14:46:54-08:00","4",1,"Stimuli/versionEstim.txt","Procedure/versionEproc.txt","Tetris",NA,"ESSAY","","ESSAY","OFF","AdHoc_Restudy_L6","",230,"Study","No","3","AdHoc_Restudy_L6","ON","",3000,NA,NA,NA,NA,NA,NA,NA,NA
"APUPF3D94XYUQ","Collector",1,250,"2016-03-09T14:46:58-08:00","4",1,"Stimuli/versionEstim.txt","Procedure/versionEproc.txt","Tetris",NA,"ENCYCLOPEDIA","","ENCYCLOPEDIA","OFF","AdHoc_Restudy_L6","",229,"Study","No","3","AdHoc_Restudy_L6","ON","",3000,NA,NA,NA,NA,NA,NA,NA,NA
"APUPF3D94XYUQ","Collector",1,251,"2016-03-09T14:47:02-08:00","4",1,"Stimuli/versionEstim.txt","Procedure/versionEproc.txt","Tetris",NA,"TEXT","","TEXT","OFF","AdHoc_Restudy_L6","",222,"Study","No","3","AdHoc_Restudy_L6","ON","",3000,NA,NA,NA,NA,NA,NA,NA,NA
"APUPF3D94XYUQ","Collector",1,252,"2016-03-09T14:47:06-08:00","4",1,"Stimuli/versionEstim.txt","Procedure/versionEproc.txt","Tetris",NA,"COMIC","","COMIC","OFF","AdHoc_Restudy_L6","",224,"Study","No","3","AdHoc_Restudy_L6","ON","",3000,NA,NA,NA,NA,NA,NA,NA,NA
"APUPF3D94XYUQ","Collector",1,253,"2016-03-09T14:48:05-08:00","59",1,"Stimuli/versionEstim.txt","Procedure/versionEproc.txt","Tetris",NA,"n/a","n/a","n/a","n/a","n/a","n/a",0,"Instruct","N/A","User","Now you will complete a recognition memory test based on the last 6 lists that you have studied. A word will be displayed on the computer screen and you are to decide whether the word was studied in the last 6 lists. If the word was studied, click the yes button. If the word was not studied, click the no button. Respond as quickly as possible without compromising accuracy.","OFF","",52650,NA,NA,NA,NA,NA,NA,NA,NA
"APUPF3D94XYUQ","Collector",1,254,"2016-03-09T14:48:08-08:00","3",1,"Stimuli/versionEstim.txt","Procedure/versionEproc.txt","Tetris",NA,"n/a","n/a","n/a","n/a","n/a","n/a",0,"Instruct","N/A","User","Click the button below to begin the test.","OFF","",1190,NA,NA,NA,NA,NA,NA,NA,NA
"APUPF3D94XYUQ","Collector",1,255,"2016-03-09T14:48:11-08:00","3",1,"Stimuli/versionEstim.txt","Procedure/versionEproc.txt","Tetris",NA,"FALL","","FALL","OFF","LI_Unrel_Restudy","",281,"seqrec","No","User","RGN Test","ON","Yes",1500,NA,NA,NA,NA,NA,NA,NA,NA
"APUPF3D94XYUQ","Collector",1,256,"2016-03-09T14:48:13-08:00","2",1,"Stimuli/versionEstim.txt","Procedure/versionEproc.txt","Tetris",NA,"SOFA","","SOFA","OFF","NPCI_Cat_Restudy","",402,"seqrec","No","User","RGN Test","ON","No",1480,NA,NA,NA,NA,NA,NA,NA,NA
"APUPF3D94XYUQ","Collector",1,257,"2016-03-09T14:48:18-08:00","5",1,"Stimuli/versionEstim.txt","Procedure/versionEproc.txt","Tetris",NA,"PLATTER","","PLATTER","OFF","LI_AdHoc_Restudy","",253,"seqrec","No","User","RGN Test","ON","No",2200,NA,NA,NA,NA,NA,NA,NA,NA
"APUPF3D94XYUQ","Collector",1,258,"2016-03-09T14:48:20-08:00","2",1,"Stimuli/versionEstim.txt","Procedure/versionEproc.txt","Tetris",NA,"FLOUR","","FLOUR","OFF","NPLI_Unrel_Restudy","",376,"seqrec","No","User","RGN Test","ON","No",1930,NA,NA,NA,NA,NA,NA,NA,NA
"APUPF3D94XYUQ","Collector",1,259,"2016-03-09T14:48:22-08:00","2",1,"Stimuli/versionEstim.txt","Procedure/versionEproc.txt","Tetris",NA,"SKILLET","","SKILLET","OFF","LI_AdHoc_Restudy","",258,"seqrec","No","User","RGN Test","ON","Yes",870,NA,NA,NA,NA,NA,NA,NA,NA
"APUPF3D94XYUQ","Collector",1,260,"2016-03-09T14:48:25-08:00","3",1,"Stimuli/versionEstim.txt","Procedure/versionEproc.txt","Tetris",NA,"LAMP","","LAMP","OFF","NPCI_Cat_Restudy","",403,"seqrec","No","User","RGN Test","ON","Yes",1510,NA,NA,NA,NA,NA,NA,NA,NA
"APUPF3D94XYUQ","Collector",1,261,"2016-03-09T14:48:26-08:00","1",1,"Stimuli/versionEstim.txt","Procedure/versionEproc.txt","Tetris",NA,"SHOP","","SHOP","OFF","LI_Unrel_Restudy","",271,"seqrec","No","User","RGN Test","ON","Yes",920,NA,NA,NA,NA,NA,NA,NA,NA
"APUPF3D94XYUQ","Collector",1,262,"2016-03-09T14:48:31-08:00","5",1,"Stimuli/versionEstim.txt","Procedure/versionEproc.txt","Tetris",NA,"HILL","","HILL","OFF","NPCI_Unrel_Restudy","",414,"seqrec","No","User","RGN Test","ON","",NA,NA,NA,NA,NA,NA,NA,NA,NA
"APUPF3D94XYUQ","Collector",1,263,"2016-03-09T14:48:40-08:00","9",1,"Stimuli/versionEstim.txt","Procedure/versionEproc.txt","Tetris",NA,"RACING","","RACING","OFF","LI_Cat_Restudy","",251,"seqrec","No","User","RGN Test","ON","",NA,NA,NA,NA,NA,NA,NA,NA,NA
"APUPF3D94XYUQ","Collector",1,264,"2016-03-09T14:48:43-08:00","3",1,"Stimuli/versionEstim.txt","Procedure/versionEproc.txt","Tetris",NA,"UNCLE","","UNCLE","OFF","CI_Unrel_Restudy","",317,"seqrec","No","User","RGN Test","ON","No",1620,NA,NA,NA,NA,NA,NA,NA,NA
"APUPF3D94XYUQ","Collector",1,265,"2016-03-09T14:48:45-08:00","2",1,"Stimuli/versionEstim.txt","Procedure/versionEproc.txt","Tetris",NA,"SWIMMING","","SWIMMING","OFF","CI_Cat_Restudy","",306,"seqrec","No","User","RGN Test","ON","Yes",1110,NA,NA,NA,NA,NA,NA,NA,NA
"APUPF3D94XYUQ","Collector",1,266,"2016-03-09T14:48:49-08:00","4",1,"Stimuli/versionEstim.txt","Procedure/versionEproc.txt","Tetris",NA,"BRIGHT","","BRIGHT","OFF","NPLI_Unrel_Restudy","",375,"seqrec","No","User","RGN Test","ON","",NA,NA,NA,NA,NA,NA,NA,NA,NA
"APUPF3D94XYUQ","Collector",1,267,"2016-03-09T14:48:52-08:00","3",1,"Stimuli/versionEstim.txt","Procedure/versionEproc.txt","Tetris",NA,"DRESSER","","DRESSER","OFF","NPCI_Cat_Restudy","",404,"seqrec","No","User","RGN Test","ON","Yes",1480,NA,NA,NA,NA,NA,NA,NA,NA
"APUPF3D94XYUQ","Collector",1,268,"2016-03-09T14:48:54-08:00","2",1,"Stimuli/versionEstim.txt","Procedure/versionEproc.txt","Tetris",NA,"POLO","","POLO","OFF","LI_Cat_Restudy","",249,"seqrec","No","User","RGN Test","ON","Yes",1170,NA,NA,NA,NA,NA,NA,NA,NA
"APUPF3D94XYUQ","Collector",1,269,"2016-03-09T14:48:57-08:00","3",1,"Stimuli/versionEstim.txt","Procedure/versionEproc.txt","Tetris",NA,"HAT","","HAT","OFF","NPLI_AdHoc_Restudy","",342,"seqrec","No","User","RGN Test","ON","No",2040,NA,NA,NA,NA,NA,NA,NA,NA
"APUPF3D94XYUQ","Collector",1,270,"2016-03-09T14:48:59-08:00","2",1,"Stimuli/versionEstim.txt","Procedure/versionEproc.txt","Tetris",NA,"KNIFE","","KNIFE","OFF","LI_AdHoc_Restudy","",252,"seqrec","No","User","RGN Test","ON","Yes",1040,NA,NA,NA,NA,NA,NA,NA,NA
"APUPF3D94XYUQ","Collector",1,271,"2016-03-09T14:49:01-08:00","2",1,"Stimuli/versionEstim.txt","Procedure/versionEproc.txt","Tetris",NA,"MAGAZINE","","MAGAZINE","OFF","CI_AdHoc_Restudy","",327,"seqrec","No","User","RGN Test","ON","Yes",970,NA,NA,NA,NA,NA,NA,NA,NA
"APUPF3D94XYUQ","Collector",1,272,"2016-03-09T14:49:03-08:00","2",1,"Stimuli/versionEstim.txt","Procedure/versionEproc.txt","Tetris",NA,"KAYAK","","KAYAK","OFF","LI_Unrel_Restudy","",270,"seqrec","No","User","RGN Test","ON","Yes",1290,NA,NA,NA,NA,NA,NA,NA,NA
"APUPF3D94XYUQ","Collector",1,273,"2016-03-09T14:49:05-08:00","2",1,"Stimuli/versionEstim.txt","Procedure/versionEproc.txt","Tetris",NA,"PEARLS","","PEARLS","OFF","NPLI_AdHoc_Restudy","",350,"seqrec","No","User","RGN Test","ON","No",1430,NA,NA,NA,NA,NA,NA,NA,NA
"APUPF3D94XYUQ","Collector",1,274,"2016-03-09T14:49:07-08:00","2",1,"Stimuli/versionEstim.txt","Procedure/versionEproc.txt","Tetris",NA,"SINK","","SINK","OFF","CI_AdHoc_Restudy","",310,"seqrec","No","User","RGN Test","ON","No",1470,NA,NA,NA,NA,NA,NA,NA,NA
"APUPF3D94XYUQ","Collector",1,275,"2016-03-09T14:49:09-08:00","2",1,"Stimuli/versionEstim.txt","Procedure/versionEproc.txt","Tetris",NA,"BIOGRAPHY","","BIOGRAPHY","OFF","LI_AdHoc_Restudy","",301,"seqrec","No","User","RGN Test","ON","Yes",1050,NA,NA,NA,NA,NA,NA,NA,NA
"APUPF3D94XYUQ","Collector",1,276,"2016-03-09T14:49:11-08:00","2",1,"Stimuli/versionEstim.txt","Procedure/versionEproc.txt","Tetris",NA,"SPARROW","","SPARROW","OFF","CI_Cat_Restudy","",322,"seqrec","No","User","RGN Test","ON","Yes",1030,NA,NA,NA,NA,NA,NA,NA,NA
"APUPF3D94XYUQ","Collector",1,277,"2016-03-09T14:49:13-08:00","2",1,"Stimuli/versionEstim.txt","Procedure/versionEproc.txt","Tetris",NA,"CANARY","","CANARY","OFF","CI_Cat_Restudy","",324,"seqrec","No","User","RGN Test","ON","Yes",1170,NA,NA,NA,NA,NA,NA,NA,NA
"APUPF3D94XYUQ","Collector",1,278,"2016-03-09T14:49:16-08:00","3",1,"Stimuli/versionEstim.txt","Procedure/versionEproc.txt","Tetris",NA,"GOWN","","GOWN","OFF","NPLI_AdHoc_Restudy","",348,"seqrec","No","User","RGN Test","ON","No",1300,NA,NA,NA,NA,NA,NA,NA,NA
"APUPF3D94XYUQ","Collector",1,279,"2016-03-09T14:49:17-08:00","1",1,"Stimuli/versionEstim.txt","Procedure/versionEproc.txt","Tetris",NA,"FALCON","","FALCON","OFF","LI_Cat_Restudy","",291,"seqrec","No","User","RGN Test","ON","Yes",970,NA,NA,NA,NA,NA,NA,NA,NA
"APUPF3D94XYUQ","Collector",1,280,"2016-03-09T14:49:20-08:00","3",1,"Stimuli/versionEstim.txt","Procedure/versionEproc.txt","Tetris",NA,"ROBOT","","ROBOT","OFF","CI_Unrel_Restudy","",313,"seqrec","No","User","RGN Test","ON","No",1460,NA,NA,NA,NA,NA,NA,NA,NA
"APUPF3D94XYUQ","Collector",1,281,"2016-03-09T14:49:23-08:00","3",1,"Stimuli/versionEstim.txt","Procedure/versionEproc.txt","Tetris",NA,"LEAFLET","","LEAFLET","OFF","LI_AdHoc_Restudy","",297,"seqrec","No","User","RGN Test","ON","Yes",2270,NA,NA,NA,NA,NA,NA,NA,NA
"APUPF3D94XYUQ","Collector",1,282,"2016-03-09T14:49:25-08:00","2",1,"Stimuli/versionEstim.txt","Procedure/versionEproc.txt","Tetris",NA,"DAVENPORT","","DAVENPORT","OFF","NPLI_Cat_Restudy","",361,"seqrec","No","User","RGN Test","ON","No",1360,NA,NA,NA,NA,NA,NA,NA,NA
"APUPF3D94XYUQ","Collector",1,283,"2016-03-09T14:49:27-08:00","2",1,"Stimuli/versionEstim.txt","Procedure/versionEproc.txt","Tetris",NA,"ENCYCLOPEDIA","","ENCYCLOPEDIA","OFF","LI_AdHoc_Restudy","",295,"seqrec","No","User","RGN Test","ON","Yes",940,NA,NA,NA,NA,NA,NA,NA,NA
"APUPF3D94XYUQ","Collector",1,284,"2016-03-09T14:49:31-08:00","4",1,"Stimuli/versionEstim.txt","Procedure/versionEproc.txt","Tetris",NA,"MICROWAVE","","MICROWAVE","OFF","CI_AdHoc_Restudy","",311,"seqrec","No","User","RGN Test","ON","Yes",1750,NA,NA,NA,NA,NA,NA,NA,NA
"APUPF3D94XYUQ","Collector",1,285,"2016-03-09T14:49:34-08:00","3",1,"Stimuli/versionEstim.txt","Procedure/versionEproc.txt","Tetris",NA,"CLOAK","","CLOAK","OFF","NPLI_Unrel_Restudy","",370,"seqrec","No","User","RGN Test","ON","No",1590,NA,NA,NA,NA,NA,NA,NA,NA
"APUPF3D94XYUQ","Collector",1,286,"2016-03-09T14:49:36-08:00","2",1,"Stimuli/versionEstim.txt","Procedure/versionEproc.txt","Tetris",NA,"DIGIT","","DIGIT","OFF","NPCI_Unrel_Restudy","",407,"seqrec","No","User","RGN Test","ON","No",1310,NA,NA,NA,NA,NA,NA,NA,NA
"APUPF3D94XYUQ","Collector",1,287,"2016-03-09T14:49:39-08:00","3",1,"Stimuli/versionEstim.txt","Procedure/versionEproc.txt","Tetris",NA,"DOWN","","DOWN","OFF","NPCI_AdHoc_Restudy","",418,"seqrec","No","User","RGN Test","ON","Yes",1970,NA,NA,NA,NA,NA,NA,NA,NA
"APUPF3D94XYUQ","Collector",1,288,"2016-03-09T14:49:42-08:00","3",1,"Stimuli/versionEstim.txt","Procedure/versionEproc.txt","Tetris",NA,"REFRIGERATOR","","REFRIGERATOR","OFF","CI_AdHoc_Restudy","",308,"seqrec","No","User","RGN Test","ON","No",1930,NA,NA,NA,NA,NA,NA,NA,NA
"APUPF3D94XYUQ","Collector",1,289,"2016-03-09T14:49:44-08:00","2",1,"Stimuli/versionEstim.txt","Procedure/versionEproc.txt","Tetris",NA,"PAMPHLET","","PAMPHLET","OFF","CI_AdHoc_Restudy","",330,"seqrec","No","User","RGN Test","ON","Yes",1000,NA,NA,NA,NA,NA,NA,NA,NA
"APUPF3D94XYUQ","Collector",1,290,"2016-03-09T14:49:46-08:00","2",1,"Stimuli/versionEstim.txt","Procedure/versionEproc.txt","Tetris",NA,"TONGUE","","TONGUE","OFF","NPLI_Cat_Restudy","",341,"seqrec","No","User","RGN Test","ON","No",1420,NA,NA,NA,NA,NA,NA,NA,NA
"APUPF3D94XYUQ","Collector",1,291,"2016-03-09T14:49:49-08:00","3",1,"Stimuli/versionEstim.txt","Procedure/versionEproc.txt","Tetris",NA,"BEEHIVE","","BEEHIVE","OFF","LI_Unrel_Restudy","",278,"seqrec","No","User","RGN Test","ON","Yes",940,NA,NA,NA,NA,NA,NA,NA,NA
"APUPF3D94XYUQ","Collector",1,292,"2016-03-09T14:49:52-08:00","3",1,"Stimuli/versionEstim.txt","Procedure/versionEproc.txt","Tetris",NA,"PRESS","","PRESS","OFF","LI_Unrel_Restudy","",269,"seqrec","No","User","RGN Test","ON","Yes",1450,NA,NA,NA,NA,NA,NA,NA,NA
"APUPF3D94XYUQ","Collector",1,293,"2016-03-09T14:49:55-08:00","3",1,"Stimuli/versionEstim.txt","Procedure/versionEproc.txt","Tetris",NA,"JOURNAL","","JOURNAL","OFF","LI_AdHoc_Restudy","",293,"seqrec","No","User","RGN Test","ON","Yes",1510,NA,NA,NA,NA,NA,NA,NA,NA
"APUPF3D94XYUQ","Collector",1,294,"2016-03-09T14:49:58-08:00","3",1,"Stimuli/versionEstim.txt","Procedure/versionEproc.txt","Tetris",NA,"SHIRT","","SHIRT","OFF","NPLI_AdHoc_Restudy","",345,"seqrec","No","User","RGN Test","ON","No",2190,NA,NA,NA,NA,NA,NA,NA,NA
"APUPF3D94XYUQ","Collector",1,295,"2016-03-09T14:50:01-08:00","3",1,"Stimuli/versionEstim.txt","Procedure/versionEproc.txt","Tetris",NA,"STOVE","","STOVE","OFF","LI_AdHoc_Restudy","",261,"seqrec","No","User","RGN Test","ON","Yes",1480,NA,NA,NA,NA,NA,NA,NA,NA
"APUPF3D94XYUQ","Collector",1,296,"2016-03-09T14:50:03-08:00","2",1,"Stimuli/versionEstim.txt","Procedure/versionEproc.txt","Tetris",NA,"BUNNY","","BUNNY","OFF","NPCI_AdHoc_Restudy","",417,"seqrec","No","User","RGN Test","ON","No",1180,NA,NA,NA,NA,NA,NA,NA,NA
"APUPF3D94XYUQ","Collector",1,297,"2016-03-09T14:50:05-08:00","2",1,"Stimuli/versionEstim.txt","Procedure/versionEproc.txt","Tetris",NA,"PELVIS","","PELVIS","OFF","NPLI_Cat_Restudy","",337,"seqrec","No","User","RGN Test","ON","No",1200,NA,NA,NA,NA,NA,NA,NA,NA
"APUPF3D94XYUQ","Collector",1,298,"2016-03-09T14:50:07-08:00","2",1,"Stimuli/versionEstim.txt","Procedure/versionEproc.txt","Tetris",NA,"PARAKEET","","PARAKEET","OFF","LI_Cat_Restudy","",283,"seqrec","No","User","RGN Test","ON","Yes",1180,NA,NA,NA,NA,NA,NA,NA,NA
"APUPF3D94XYUQ","Collector",1,299,"2016-03-09T14:50:10-08:00","3",1,"Stimuli/versionEstim.txt","Procedure/versionEproc.txt","Tetris",NA,"EARRINGS","","EARRINGS","OFF","NPCI_AdHoc_Restudy","",398,"seqrec","No","User","RGN Test","ON","No",1210,NA,NA,NA,NA,NA,NA,NA,NA
"APUPF3D94XYUQ","Collector",1,300,"2016-03-09T14:50:13-08:00","3",1,"Stimuli/versionEstim.txt","Procedure/versionEproc.txt","Tetris",NA,"FOOTBALL","","FOOTBALL","OFF","CI_Cat_Restudy","",302,"seqrec","No","User","RGN Test","ON","No",1220,NA,NA,NA,NA,NA,NA,NA,NA
"APUPF3D94XYUQ","Collector",1,301,"2016-03-09T14:50:16-08:00","3",1,"Stimuli/versionEstim.txt","Procedure/versionEproc.txt","Tetris",NA,"WIRE","","WIRE","OFF","LI_Unrel_Restudy","",263,"seqrec","No","User","RGN Test","ON","Yes",1260,NA,NA,NA,NA,NA,NA,NA,NA
"APUPF3D94XYUQ","Collector",1,302,"2016-03-09T14:50:19-08:00","3",1,"Stimuli/versionEstim.txt","Procedure/versionEproc.txt","Tetris",NA,"BULLETIN","","BULLETIN","OFF","LI_AdHoc_Restudy","",299,"seqrec","No","User","RGN Test","ON","No",2130,NA,NA,NA,NA,NA,NA,NA,NA
"APUPF3D94XYUQ","Collector",1,303,"2016-03-09T14:50:23-08:00","4",1,"Stimuli/versionEstim.txt","Procedure/versionEproc.txt","Tetris",NA,"OTTOMAN","","OTTOMAN","OFF","NPLI_Cat_Restudy","",355,"seqrec","No","User","RGN Test","ON","No",1430,NA,NA,NA,NA,NA,NA,NA,NA
"APUPF3D94XYUQ","Collector",1,304,"2016-03-09T14:50:25-08:00","2",1,"Stimuli/versionEstim.txt","Procedure/versionEproc.txt","Tetris",NA,"CHEEK","","CHEEK","OFF","NPLI_Unrel_Restudy","",368,"seqrec","No","User","RGN Test","ON","No",1330,NA,NA,NA,NA,NA,NA,NA,NA
"APUPF3D94XYUQ","Collector",1,305,"2016-03-09T14:50:31-08:00","6",1,"Stimuli/versionEstim.txt","Procedure/versionEproc.txt","Tetris",NA,"FEATHERS","","FEATHERS","OFF","NPCI_AdHoc_Restudy","",421,"seqrec","No","User","RGN Test","ON","",NA,NA,NA,NA,NA,NA,NA,NA,NA
"APUPF3D94XYUQ","Collector",1,306,"2016-03-09T14:50:33-08:00","2",1,"Stimuli/versionEstim.txt","Procedure/versionEproc.txt","Tetris",NA,"DINER","","DINER","OFF","LI_Unrel_Restudy","",268,"seqrec","No","User","RGN Test","ON","Yes",1010,NA,NA,NA,NA,NA,NA,NA,NA
"APUPF3D94XYUQ","Collector",1,307,"2016-03-09T14:50:35-08:00","2",1,"Stimuli/versionEstim.txt","Procedure/versionEproc.txt","Tetris",NA,"NOSE","","NOSE","OFF","NPCI_Cat_Restudy","",394,"seqrec","No","User","RGN Test","ON","No",1560,NA,NA,NA,NA,NA,NA,NA,NA
"APUPF3D94XYUQ","Collector",1,308,"2016-03-09T14:50:38-08:00","3",1,"Stimuli/versionEstim.txt","Procedure/versionEproc.txt","Tetris",NA,"SILK","","SILK","OFF","NPLI_AdHoc_Restudy","",382,"seqrec","No","User","RGN Test","ON","No",1570,NA,NA,NA,NA,NA,NA,NA,NA
"APUPF3D94XYUQ","Collector",1,309,"2016-03-09T14:50:40-08:00","2",1,"Stimuli/versionEstim.txt","Procedure/versionEproc.txt","Tetris",NA,"CATHEDRAL","","CATHEDRAL","OFF","NPCI_Unrel_Restudy","",410,"seqrec","No","User","RGN Test","ON","No",1240,NA,NA,NA,NA,NA,NA,NA,NA
"APUPF3D94XYUQ","Collector",1,310,"2016-03-09T14:50:43-08:00","3",1,"Stimuli/versionEstim.txt","Procedure/versionEproc.txt","Tetris",NA,"ESTATE","","ESTATE","OFF","LI_Unrel_Restudy","",272,"seqrec","No","User","RGN Test","ON","Yes",2010,NA,NA,NA,NA,NA,NA,NA,NA
"APUPF3D94XYUQ","Collector",1,311,"2016-03-09T14:50:45-08:00","2",1,"Stimuli/versionEstim.txt","Procedure/versionEproc.txt","Tetris",NA,"DRESS","","DRESS","OFF","NPCI_AdHoc_Restudy","",399,"seqrec","No","User","RGN Test","ON","Yes",990,NA,NA,NA,NA,NA,NA,NA,NA
"APUPF3D94XYUQ","Collector",1,312,"2016-03-09T14:50:47-08:00","2",1,"Stimuli/versionEstim.txt","Procedure/versionEproc.txt","Tetris",NA,"WREN","","WREN","OFF","LI_Cat_Restudy","",284,"seqrec","No","User","RGN Test","ON","Yes",1050,NA,NA,NA,NA,NA,NA,NA,NA
"APUPF3D94XYUQ","Collector",1,313,"2016-03-09T14:50:49-08:00","2",1,"Stimuli/versionEstim.txt","Procedure/versionEproc.txt","Tetris",NA,"RUGBY","","RUGBY","OFF","LI_Cat_Restudy","",250,"seqrec","No","User","RGN Test","ON","Yes",990,NA,NA,NA,NA,NA,NA,NA,NA
"APUPF3D94XYUQ","Collector",1,314,"2016-03-09T14:50:51-08:00","2",1,"Stimuli/versionEstim.txt","Procedure/versionEproc.txt","Tetris",NA,"BOOK","","BOOK","OFF","CI_AdHoc_Restudy","",328,"seqrec","No","User","RGN Test","ON","Yes",1330,NA,NA,NA,NA,NA,NA,NA,NA
"APUPF3D94XYUQ","Collector",1,315,"2016-03-09T14:50:53-08:00","2",1,"Stimuli/versionEstim.txt","Procedure/versionEproc.txt","Tetris",NA,"ARCHERY","","ARCHERY","OFF","LI_Cat_Restudy","",246,"seqrec","No","User","RGN Test","ON","Yes",1040,NA,NA,NA,NA,NA,NA,NA,NA
"APUPF3D94XYUQ","Collector",1,316,"2016-03-09T14:50:57-08:00","4",1,"Stimuli/versionEstim.txt","Procedure/versionEproc.txt","Tetris",NA,"OWL","","OWL","OFF","LI_Cat_Restudy","",290,"seqrec","No","User","RGN Test","ON","No",2710,NA,NA,NA,NA,NA,NA,NA,NA
"APUPF3D94XYUQ","Collector",1,317,"2016-03-09T14:50:59-08:00","2",1,"Stimuli/versionEstim.txt","Procedure/versionEproc.txt","Tetris",NA,"ROBIN","","ROBIN","OFF","CI_Cat_Restudy","",326,"seqrec","No","User","RGN Test","ON","Yes",1250,NA,NA,NA,NA,NA,NA,NA,NA
"APUPF3D94XYUQ","Collector",1,318,"2016-03-09T14:51:02-08:00","3",1,"Stimuli/versionEstim.txt","Procedure/versionEproc.txt","Tetris",NA,"DAIRY","","DAIRY","OFF","NPLI_Unrel_Restudy","",367,"seqrec","No","User","RGN Test","ON","Yes",2130,NA,NA,NA,NA,NA,NA,NA,NA
"APUPF3D94XYUQ","Collector",1,319,"2016-03-09T14:51:04-08:00","2",1,"Stimuli/versionEstim.txt","Procedure/versionEproc.txt","Tetris",NA,"BLANKET","","BLANKET","OFF","NPCI_AdHoc_Restudy","",420,"seqrec","No","User","RGN Test","ON","No",1230,NA,NA,NA,NA,NA,NA,NA,NA
"APUPF3D94XYUQ","Collector",1,320,"2016-03-09T14:51:06-08:00","2",1,"Stimuli/versionEstim.txt","Procedure/versionEproc.txt","Tetris",NA,"FLAKE","","FLAKE","OFF","LI_Unrel_Restudy","",275,"seqrec","No","User","RGN Test","ON","Yes",980,NA,NA,NA,NA,NA,NA,NA,NA
"APUPF3D94XYUQ","Collector",1,321,"2016-03-09T14:51:13-08:00","7",1,"Stimuli/versionEstim.txt","Procedure/versionEproc.txt","Tetris",NA,"DOVE","","DOVE","OFF","LI_Cat_Restudy","",289,"seqrec","No","User","RGN Test","ON","",NA,NA,NA,NA,NA,NA,NA,NA,NA
"APUPF3D94XYUQ","Collector",1,322,"2016-03-09T14:51:15-08:00","2",1,"Stimuli/versionEstim.txt","Procedure/versionEproc.txt","Tetris",NA,"MEASURING CUP","","MEASURING CUP","OFF","LI_AdHoc_Restudy","",255,"seqrec","No","User","RGN Test","ON","Yes",1220,NA,NA,NA,NA,NA,NA,NA,NA
"APUPF3D94XYUQ","Collector",1,323,"2016-03-09T14:51:18-08:00","3",1,"Stimuli/versionEstim.txt","Procedure/versionEproc.txt","Tetris",NA,"MIXER","","MIXER","OFF","LI_AdHoc_Restudy","",259,"seqrec","No","User","RGN Test","ON","Yes",980,NA,NA,NA,NA,NA,NA,NA,NA
"APUPF3D94XYUQ","Collector",1,324,"2016-03-09T14:51:22-08:00","4",1,"Stimuli/versionEstim.txt","Procedure/versionEproc.txt","Tetris",NA,"CHAISE","","CHAISE","OFF","NPLI_Cat_Restudy","",359,"seqrec","No","User","RGN Test","ON","No",1520,NA,NA,NA,NA,NA,NA,NA,NA
"APUPF3D94XYUQ","Collector",1,325,"2016-03-09T14:51:24-08:00","2",1,"Stimuli/versionEstim.txt","Procedure/versionEproc.txt","Tetris",NA,"PAPERBACK","","PAPERBACK","OFF","LI_AdHoc_Restudy","",298,"seqrec","No","User","RGN Test","ON","Yes",1020,NA,NA,NA,NA,NA,NA,NA,NA
"APUPF3D94XYUQ","Collector",1,326,"2016-03-09T14:51:26-08:00","2",1,"Stimuli/versionEstim.txt","Procedure/versionEproc.txt","Tetris",NA,"GRAIN","","GRAIN","OFF","CI_Unrel_Restudy","",316,"seqrec","No","User","RGN Test","ON","No",1470,NA,NA,NA,NA,NA,NA,NA,NA
"APUPF3D94XYUQ","Collector",1,327,"2016-03-09T14:51:28-08:00","2",1,"Stimuli/versionEstim.txt","Procedure/versionEproc.txt","Tetris",NA,"MAKE UP","","MAKE UP","OFF","NPLI_AdHoc_Restudy","",349,"seqrec","No","User","RGN Test","ON","No",1190,NA,NA,NA,NA,NA,NA,NA,NA
"APUPF3D94XYUQ","Collector",1,328,"2016-03-09T14:51:32-08:00","4",1,"Stimuli/versionEstim.txt","Procedure/versionEproc.txt","Tetris",NA,"SUEDE","","SUEDE","OFF","NPLI_AdHoc_Restudy","",385,"seqrec","No","User","RGN Test","ON","No",1330,NA,NA,NA,NA,NA,NA,NA,NA
"APUPF3D94XYUQ","Collector",1,329,"2016-03-09T14:51:34-08:00","2",1,"Stimuli/versionEstim.txt","Procedure/versionEproc.txt","Tetris",NA,"GALLERY","","GALLERY","OFF","LI_Unrel_Restudy","",279,"seqrec","No","User","RGN Test","ON","Yes",1200,NA,NA,NA,NA,NA,NA,NA,NA
"APUPF3D94XYUQ","Collector",1,330,"2016-03-09T14:51:37-08:00","3",1,"Stimuli/versionEstim.txt","Procedure/versionEproc.txt","Tetris",NA,"DOUGH","","DOUGH","OFF","NPLI_AdHoc_Restudy","",390,"seqrec","No","User","RGN Test","ON","Yes",1400,NA,NA,NA,NA,NA,NA,NA,NA
"APUPF3D94XYUQ","Collector",1,331,"2016-03-09T14:51:39-08:00","2",1,"Stimuli/versionEstim.txt","Procedure/versionEproc.txt","Tetris",NA,"HUMMINGBIRD","","HUMMINGBIRD","OFF","LI_Cat_Restudy","",286,"seqrec","No","User","RGN Test","ON","Yes",1340,NA,NA,NA,NA,NA,NA,NA,NA
"APUPF3D94XYUQ","Collector",1,332,"2016-03-09T14:51:45-08:00","6",1,"Stimuli/versionEstim.txt","Procedure/versionEproc.txt","Tetris",NA,"FORK","","FORK","OFF","LI_AdHoc_Restudy","",257,"seqrec","No","User","RGN Test","ON","",NA,NA,NA,NA,NA,NA,NA,NA,NA
"APUPF3D94XYUQ","Collector",1,333,"2016-03-09T14:51:47-08:00","2",1,"Stimuli/versionEstim.txt","Procedure/versionEproc.txt","Tetris",NA,"END TABLE","","END TABLE","OFF","NPLI_Cat_Restudy","",357,"seqrec","No","User","RGN Test","ON","Yes",1240,NA,NA,NA,NA,NA,NA,NA,NA
"APUPF3D94XYUQ","Collector",1,334,"2016-03-09T14:51:50-08:00","3",1,"Stimuli/versionEstim.txt","Procedure/versionEproc.txt","Tetris",NA,"GOLF","","GOLF","OFF","LI_Cat_Restudy","",242,"seqrec","No","User","RGN Test","ON","Yes",1350,NA,NA,NA,NA,NA,NA,NA,NA
"APUPF3D94XYUQ","Collector",1,335,"2016-03-09T14:51:52-08:00","2",1,"Stimuli/versionEstim.txt","Procedure/versionEproc.txt","Tetris",NA,"TENNIS","","TENNIS","OFF","CI_Cat_Restudy","",305,"seqrec","No","User","RGN Test","ON","No",1080,NA,NA,NA,NA,NA,NA,NA,NA
"APUPF3D94XYUQ","Collector",1,336,"2016-03-09T14:51:54-08:00","2",1,"Stimuli/versionEstim.txt","Procedure/versionEproc.txt","Tetris",NA,"EYEBROW","","EYEBROW","OFF","NPLI_Cat_Restudy","",335,"seqrec","No","User","RGN Test","ON","No",1380,NA,NA,NA,NA,NA,NA,NA,NA
"APUPF3D94XYUQ","Collector",1,337,"2016-03-09T14:51:58-08:00","4",1,"Stimuli/versionEstim.txt","Procedure/versionEproc.txt","Tetris",NA,"BROOCH","","BROOCH","OFF","NPLI_AdHoc_Restudy","",351,"seqrec","No","User","RGN Test","ON","",NA,NA,NA,NA,NA,NA,NA,NA,NA
"APUPF3D94XYUQ","Collector",1,338,"2016-03-09T14:52:03-08:00","5",1,"Stimuli/versionEstim.txt","Procedure/versionEproc.txt","Tetris",NA,"WALNUT","","WALNUT","OFF","NPLI_Unrel_Restudy","",381,"seqrec","No","User","RGN Test","ON","",NA,NA,NA,NA,NA,NA,NA,NA,NA
"APUPF3D94XYUQ","Collector",1,339,"2016-03-09T14:52:05-08:00","2",1,"Stimuli/versionEstim.txt","Procedure/versionEproc.txt","Tetris",NA,"GLASS","","GLASS","OFF","LI_AdHoc_Restudy","",256,"seqrec","No","User","RGN Test","ON","Yes",1090,NA,NA,NA,NA,NA,NA,NA,NA
"APUPF3D94XYUQ","Collector",1,340,"2016-03-09T14:52:07-08:00","2",1,"Stimuli/versionEstim.txt","Procedure/versionEproc.txt","Tetris",NA,"PARROT","","PARROT","OFF","LI_Cat_Restudy","",285,"seqrec","No","User","RGN Test","ON","Yes",1490,NA,NA,NA,NA,NA,NA,NA,NA
"APUPF3D94XYUQ","Collector",1,341,"2016-03-09T14:52:10-08:00","3",1,"Stimuli/versionEstim.txt","Procedure/versionEproc.txt","Tetris",NA,"KERNEL","","KERNEL","OFF","NPCI_Unrel_Restudy","",412,"seqrec","No","User","RGN Test","ON","No",1490,NA,NA,NA,NA,NA,NA,NA,NA
"APUPF3D94XYUQ","Collector",1,342,"2016-03-09T14:52:12-08:00","2",1,"Stimuli/versionEstim.txt","Procedure/versionEproc.txt","Tetris",NA,"CHINA CLOSET","","CHINA CLOSET","OFF","NPLI_Cat_Restudy","",360,"seqrec","No","User","RGN Test","ON","No",1430,NA,NA,NA,NA,NA,NA,NA,NA
"APUPF3D94XYUQ","Collector",1,343,"2016-03-09T14:52:14-08:00","2",1,"Stimuli/versionEstim.txt","Procedure/versionEproc.txt","Tetris",NA,"OTTER","","OTTER","OFF","NPLI_Unrel_Restudy","",365,"seqrec","No","User","RGN Test","ON","Yes",1590,NA,NA,NA,NA,NA,NA,NA,NA
"APUPF3D94XYUQ","Collector",1,344,"2016-03-09T14:52:18-08:00","4",1,"Stimuli/versionEstim.txt","Procedure/versionEproc.txt","Tetris",NA,"SLIP","","SLIP","OFF","NPLI_AdHoc_Restudy","",347,"seqrec","No","User","RGN Test","ON","Yes",1630,NA,NA,NA,NA,NA,NA,NA,NA
"APUPF3D94XYUQ","Collector",1,345,"2016-03-09T14:52:20-08:00","2",1,"Stimuli/versionEstim.txt","Procedure/versionEproc.txt","Tetris",NA,"FINGER","","FINGER","OFF","NPLI_Cat_Restudy","",333,"seqrec","No","User","RGN Test","ON","No",1090,NA,NA,NA,NA,NA,NA,NA,NA
"APUPF3D94XYUQ","Collector",1,346,"2016-03-09T14:52:22-08:00","2",1,"Stimuli/versionEstim.txt","Procedure/versionEproc.txt","Tetris",NA,"DUGOUT","","DUGOUT","OFF","LI_Unrel_Restudy","",273,"seqrec","No","User","RGN Test","ON","Yes",1340,NA,NA,NA,NA,NA,NA,NA,NA
"APUPF3D94XYUQ","Collector",1,347,"2016-03-09T14:52:25-08:00","3",1,"Stimuli/versionEstim.txt","Procedure/versionEproc.txt","Tetris",NA,"WAVE","","WAVE","OFF","CI_Unrel_Restudy","",312,"seqrec","No","User","RGN Test","ON","No",1380,NA,NA,NA,NA,NA,NA,NA,NA
"APUPF3D94XYUQ","Collector",1,348,"2016-03-09T14:52:27-08:00","2",1,"Stimuli/versionEstim.txt","Procedure/versionEproc.txt","Tetris",NA,"NECTAR","","NECTAR","OFF","NPLI_Unrel_Restudy","",369,"seqrec","No","User","RGN Test","ON","No",1460,NA,NA,NA,NA,NA,NA,NA,NA
"APUPF3D94XYUQ","Collector",1,349,"2016-03-09T14:52:29-08:00","2",1,"Stimuli/versionEstim.txt","Procedure/versionEproc.txt","Tetris",NA,"TRACK","","TRACK","OFF","LI_Cat_Restudy","",243,"seqrec","No","User","RGN Test","ON","Yes",1070,NA,NA,NA,NA,NA,NA,NA,NA
"APUPF3D94XYUQ","Collector",1,350,"2016-03-09T14:52:31-08:00","2",1,"Stimuli/versionEstim.txt","Procedure/versionEproc.txt","Tetris",NA,"KIT","","KIT","OFF","CI_Unrel_Restudy","",321,"seqrec","No","User","RGN Test","ON","Yes",1340,NA,NA,NA,NA,NA,NA,NA,NA
"APUPF3D94XYUQ","Collector",1,351,"2016-03-09T14:52:33-08:00","2",1,"Stimuli/versionEstim.txt","Procedure/versionEproc.txt","Tetris",NA,"PASTE","","PASTE","OFF","LI_Unrel_Restudy","",267,"seqrec","No","User","RGN Test","ON","Yes",980,NA,NA,NA,NA,NA,NA,NA,NA
"APUPF3D94XYUQ","Collector",1,352,"2016-03-09T14:52:37-08:00","4",1,"Stimuli/versionEstim.txt","Procedure/versionEproc.txt","Tetris",NA,"BASKETBALL","","BASKETBALL","OFF","CI_Cat_Restudy","",304,"seqrec","No","User","RGN Test","ON","Yes",2860,NA,NA,NA,NA,NA,NA,NA,NA
"APUPF3D94XYUQ","Collector",1,353,"2016-03-09T14:52:40-08:00","3",1,"Stimuli/versionEstim.txt","Procedure/versionEproc.txt","Tetris",NA,"LAND","","LAND","OFF","NPLI_Unrel_Restudy","",364,"seqrec","No","User","RGN Test","ON","Yes",1250,NA,NA,NA,NA,NA,NA,NA,NA
"APUPF3D94XYUQ","Collector",1,354,"2016-03-09T14:52:42-08:00","2",1,"Stimuli/versionEstim.txt","Procedure/versionEproc.txt","Tetris",NA,"COFFEE TABLE","","COFFEE TABLE","OFF","NPLI_Cat_Restudy","",354,"seqrec","No","User","RGN Test","ON","Yes",1280,NA,NA,NA,NA,NA,NA,NA,NA
"APUPF3D94XYUQ","Collector",1,355,"2016-03-09T14:52:45-08:00","3",1,"Stimuli/versionEstim.txt","Procedure/versionEproc.txt","Tetris",NA,"NECKLACE","","NECKLACE","OFF","NPCI_AdHoc_Restudy","",401,"seqrec","No","User","RGN Test","ON","No",1200,NA,NA,NA,NA,NA,NA,NA,NA
"APUPF3D94XYUQ","Collector",1,356,"2016-03-09T14:52:47-08:00","2",1,"Stimuli/versionEstim.txt","Procedure/versionEproc.txt","Tetris",NA,"HEAD","","HEAD","OFF","NPLI_Cat_Restudy","",332,"seqrec","No","User","RGN Test","ON","No",1080,NA,NA,NA,NA,NA,NA,NA,NA
"APUPF3D94XYUQ","Collector",1,357,"2016-03-09T14:52:50-08:00","3",1,"Stimuli/versionEstim.txt","Procedure/versionEproc.txt","Tetris",NA,"BADMINTON","","BADMINTON","OFF","LI_Cat_Restudy","",244,"seqrec","No","User","RGN Test","ON","No",1990,NA,NA,NA,NA,NA,NA,NA,NA
"APUPF3D94XYUQ","Collector",1,358,"2016-03-09T14:52:52-08:00","2",1,"Stimuli/versionEstim.txt","Procedure/versionEproc.txt","Tetris",NA,"EYE SHADOW","","EYE SHADOW","OFF","NPLI_AdHoc_Restudy","",343,"seqrec","No","User","RGN Test","ON","Yes",1090,NA,NA,NA,NA,NA,NA,NA,NA
"APUPF3D94XYUQ","Collector",1,359,"2016-03-09T14:52:54-08:00","2",1,"Stimuli/versionEstim.txt","Procedure/versionEproc.txt","Tetris",NA,"STOOL","","STOOL","OFF","NPCI_Cat_Restudy","",405,"seqrec","No","User","RGN Test","ON","Yes",1120,NA,NA,NA,NA,NA,NA,NA,NA
"APUPF3D94XYUQ","Collector",1,360,"2016-03-09T14:52:56-08:00","2",1,"Stimuli/versionEstim.txt","Procedure/versionEproc.txt","Tetris",NA,"STATION","","STATION","OFF","LI_Unrel_Restudy","",274,"seqrec","No","User","RGN Test","ON","Yes",920,NA,NA,NA,NA,NA,NA,NA,NA
"APUPF3D94XYUQ","Collector",1,361,"2016-03-09T14:52:58-08:00","2",1,"Stimuli/versionEstim.txt","Procedure/versionEproc.txt","Tetris",NA,"NOVEL","","NOVEL","OFF","CI_AdHoc_Restudy","",331,"seqrec","No","User","RGN Test","ON","Yes",940,NA,NA,NA,NA,NA,NA,NA,NA
"APUPF3D94XYUQ","Collector",1,362,"2016-03-09T14:53:00-08:00","2",1,"Stimuli/versionEstim.txt","Procedure/versionEproc.txt","Tetris",NA,"BASEBALL  ","","BASEBALL  ","OFF","CI_Cat_Restudy","",303,"seqrec","No","User","RGN Test","ON","Yes",1260,NA,NA,NA,NA,NA,NA,NA,NA
"APUPF3D94XYUQ","Collector",1,363,"2016-03-09T14:53:02-08:00","2",1,"Stimuli/versionEstim.txt","Procedure/versionEproc.txt","Tetris",NA,"WOODPECKER","","WOODPECKER","OFF","LI_Cat_Restudy","",287,"seqrec","No","User","RGN Test","ON","Yes",950,NA,NA,NA,NA,NA,NA,NA,NA
"APUPF3D94XYUQ","Collector",1,364,"2016-03-09T14:53:04-08:00","2",1,"Stimuli/versionEstim.txt","Procedure/versionEproc.txt","Tetris",NA,"ARROW","","ARROW","OFF","LI_Unrel_Restudy","",264,"seqrec","No","User","RGN Test","ON","Yes",1130,NA,NA,NA,NA,NA,NA,NA,NA
"APUPF3D94XYUQ","Collector",1,365,"2016-03-09T14:53:06-08:00","2",1,"Stimuli/versionEstim.txt","Procedure/versionEproc.txt","Tetris",NA,"BLUE JAY","","BLUE JAY","OFF","CI_Cat_Restudy","",323,"seqrec","No","User","RGN Test","ON","No",1230,NA,NA,NA,NA,NA,NA,NA,NA
"APUPF3D94XYUQ","Collector",1,366,"2016-03-09T14:53:10-08:00","4",1,"Stimuli/versionEstim.txt","Procedure/versionEproc.txt","Tetris",NA,"BRAIN","","BRAIN","OFF","NPLI_Cat_Restudy","",338,"seqrec","No","User","RGN Test","ON","No",1890,NA,NA,NA,NA,NA,NA,NA,NA
"APUPF3D94XYUQ","Collector",1,367,"2016-03-09T14:53:13-08:00","3",1,"Stimuli/versionEstim.txt","Procedure/versionEproc.txt","Tetris",NA,"KNOB","","KNOB","OFF","NPLI_Unrel_Restudy","",362,"seqrec","No","User","RGN Test","ON","No",1450,NA,NA,NA,NA,NA,NA,NA,NA
"APUPF3D94XYUQ","Collector",1,368,"2016-03-09T14:53:15-08:00","2",1,"Stimuli/versionEstim.txt","Procedure/versionEproc.txt","Tetris",NA,"CLOUDS","","CLOUDS","OFF","NPLI_AdHoc_Restudy","",383,"seqrec","No","User","RGN Test","ON","Yes",1020,NA,NA,NA,NA,NA,NA,NA,NA
"APUPF3D94XYUQ","Collector",1,369,"2016-03-09T14:53:18-08:00","3",1,"Stimuli/versionEstim.txt","Procedure/versionEproc.txt","Tetris",NA,"GAUZE","","GAUZE","OFF","NPLI_Unrel_Restudy","",366,"seqrec","No","User","RGN Test","ON","Yes",1220,NA,NA,NA,NA,NA,NA,NA,NA
"APUPF3D94XYUQ","Collector",1,370,"2016-03-09T14:53:21-08:00","3",1,"Stimuli/versionEstim.txt","Procedure/versionEproc.txt","Tetris",NA,"MARSHMALLOW","","MARSHMALLOW","OFF","NPLI_AdHoc_Restudy","",386,"seqrec","No","User","RGN Test","ON","No",1070,NA,NA,NA,NA,NA,NA,NA,NA
"APUPF3D94XYUQ","Collector",1,371,"2016-03-09T14:53:24-08:00","3",1,"Stimuli/versionEstim.txt","Procedure/versionEproc.txt","Tetris",NA,"SHOULDERS","","SHOULDERS","OFF","NPLI_Cat_Restudy","",340,"seqrec","No","User","RGN Test","ON","No",1250,NA,NA,NA,NA,NA,NA,NA,NA
"APUPF3D94XYUQ","Collector",1,372,"2016-03-09T14:53:26-08:00","2",1,"Stimuli/versionEstim.txt","Procedure/versionEproc.txt","Tetris",NA,"FENCING","","FENCING","OFF","LI_Cat_Restudy","",247,"seqrec","No","User","RGN Test","ON","Yes",910,NA,NA,NA,NA,NA,NA,NA,NA
"APUPF3D94XYUQ","Collector",1,373,"2016-03-09T14:53:28-08:00","2",1,"Stimuli/versionEstim.txt","Procedure/versionEproc.txt","Tetris",NA,"COTTON","","COTTON","OFF","NPCI_AdHoc_Restudy","",419,"seqrec","No","User","RGN Test","ON","Yes",1420,NA,NA,NA,NA,NA,NA,NA,NA
"APUPF3D94XYUQ","Collector",1,374,"2016-03-09T14:53:30-08:00","2",1,"Stimuli/versionEstim.txt","Procedure/versionEproc.txt","Tetris",NA,"SEED","","SEED","OFF","LI_Unrel_Restudy","",280,"seqrec","No","User","RGN Test","ON","Yes",1030,NA,NA,NA,NA,NA,NA,NA,NA
"APUPF3D94XYUQ","Collector",1,375,"2016-03-09T14:53:33-08:00","3",1,"Stimuli/versionEstim.txt","Procedure/versionEproc.txt","Tetris",NA,"SHOE","","SHOE","OFF","NPLI_Unrel_Restudy","",374,"seqrec","No","User","RGN Test","ON","Yes",1330,NA,NA,NA,NA,NA,NA,NA,NA
"APUPF3D94XYUQ","Collector",1,376,"2016-03-09T14:53:35-08:00","2",1,"Stimuli/versionEstim.txt","Procedure/versionEproc.txt","Tetris",NA,"CONTEST","","CONTEST","OFF","NPCI_Unrel_Restudy","",408,"seqrec","No","User","RGN Test","ON","No",1140,NA,NA,NA,NA,NA,NA,NA,NA
"APUPF3D94XYUQ","Collector",1,377,"2016-03-09T14:53:39-08:00","4",1,"Stimuli/versionEstim.txt","Procedure/versionEproc.txt","Tetris",NA,"EAGLE","","EAGLE","OFF","LI_Cat_Restudy","",282,"seqrec","No","User","RGN Test","ON","Yes",2890,NA,NA,NA,NA,NA,NA,NA,NA
