*Username	*ExperimentName	*Session	*Trial	*Date	*TimeDif	*Condition Number	*Stimuli File	*Order File	*Condition Description	*Condition Notes	Stimuli*Target	Stimuli*Cue	Stimuli*Answer	Stimuli*Shuffle	Stimuli*Stimuli Notes	Stimuli*	Procedure*Item	Procedure*Trial Type	Procedure*Post Trial	Procedure*Timing	Procedure*Procedure Notes	Procedure*Shuffle	Response*Response1	Response*RT	Response*RTkey	Response*RTlast	Response*strictAcc	Response*lenientAcc	Response*Accuracy	Response*JOL	Response*postRT	Response*postRTkey
AQ4XLFW94PEAB	Collector	1	1	2016-05-26T11:39:36-07:00	-	1	Stimuli/versionEstim.txt	Procedure/versionEproc.txt	Tetris		n/a	n/a	n/a	n/a	n/a	n/a	0	Instruct	N/A	User	Click the button below for the first list.	Off		18360								
AQ4XLFW94PEAB	Collector	1	2	2016-05-26T11:39:45-07:00	9	1	Stimuli/versionEstim.txt	Procedure/versionEproc.txt	Tetris		HOCKEY		HOCKEY	OFF	Cat_Restudy_L1		4	Study	No	3	Cat_Restudy_L1	ON		3000								
AQ4XLFW94PEAB	Collector	1	3	2016-05-26T11:39:49-07:00	4	1	Stimuli/versionEstim.txt	Procedure/versionEproc.txt	Tetris		BOXING		BOXING	OFF	Cat_Restudy_L1		18	Study	No	3	Cat_Restudy_L1	ON		3000								
AQ4XLFW94PEAB	Collector	1	4	2016-05-26T11:39:53-07:00	4	1	Stimuli/versionEstim.txt	Procedure/versionEproc.txt	Tetris		FENCING		FENCING	OFF	Cat_Restudy_L1		13	Study	No	3	Cat_Restudy_L1	ON		3000								
AQ4XLFW94PEAB	Collector	1	5	2016-05-26T11:39:57-07:00	4	1	Stimuli/versionEstim.txt	Procedure/versionEproc.txt	Tetris		GOLF		GOLF	OFF	Cat_Restudy_L1		3	Study	No	3	Cat_Restudy_L1	ON		3000								
AQ4XLFW94PEAB	Collector	1	6	2016-05-26T11:40:01-07:00	4	1	Stimuli/versionEstim.txt	Procedure/versionEproc.txt	Tetris		RUGBY		RUGBY	OFF	Cat_Restudy_L1		19	Study	No	3	Cat_Restudy_L1	ON		3000								
AQ4XLFW94PEAB	Collector	1	7	2016-05-26T11:40:05-07:00	4	1	Stimuli/versionEstim.txt	Procedure/versionEproc.txt	Tetris		PING-PONG		PING-PONG	OFF	Cat_Restudy_L1		14	Study	No	3	Cat_Restudy_L1	ON		3000								
AQ4XLFW94PEAB	Collector	1	8	2016-05-26T11:40:09-07:00	4	1	Stimuli/versionEstim.txt	Procedure/versionEproc.txt	Tetris		RACING		RACING	OFF	Cat_Restudy_L1		21	Study	No	3	Cat_Restudy_L1	ON		3000								
AQ4XLFW94PEAB	Collector	1	9	2016-05-26T11:40:13-07:00	4	1	Stimuli/versionEstim.txt	Procedure/versionEproc.txt	Tetris		VOLLEYBALL		VOLLEYBALL	OFF	Cat_Restudy_L1		10	Study	No	3	Cat_Restudy_L1	ON		3000								
AQ4XLFW94PEAB	Collector	1	10	2016-05-26T11:40:17-07:00	4	1	Stimuli/versionEstim.txt	Procedure/versionEproc.txt	Tetris		SKIING		SKIING	OFF	Cat_Restudy_L1		12	Study	No	3	Cat_Restudy_L1	ON		3000								
AQ4XLFW94PEAB	Collector	1	11	2016-05-26T11:40:21-07:00	4	1	Stimuli/versionEstim.txt	Procedure/versionEproc.txt	Tetris		SOCCER		SOCCER	OFF	Cat_Restudy_L1		2	Study	No	3	Cat_Restudy_L1	ON		3000								
AQ4XLFW94PEAB	Collector	1	12	2016-05-26T11:40:24-07:00	3	1	Stimuli/versionEstim.txt	Procedure/versionEproc.txt	Tetris		POLO		POLO	OFF	Cat_Restudy_L1		17	Study	No	3	Cat_Restudy_L1	ON		3000								
AQ4XLFW94PEAB	Collector	1	13	2016-05-26T11:40:28-07:00	4	1	Stimuli/versionEstim.txt	Procedure/versionEproc.txt	Tetris		SOFTBALL		SOFTBALL	OFF	Cat_Restudy_L1		15	Study	No	3	Cat_Restudy_L1	ON		3000								
AQ4XLFW94PEAB	Collector	1	14	2016-05-26T11:40:35-07:00	7	1	Stimuli/versionEstim.txt	Procedure/versionEproc.txt	Tetris		BOWLING		BOWLING	OFF	Cat_Restudy_L1		8	Study	No	3	Cat_Restudy_L1	ON		3000								
AQ4XLFW94PEAB	Collector	1	15	2016-05-26T11:41:09-07:00	34	1	Stimuli/versionEstim.txt	Procedure/versionEproc.txt	Tetris		BADMINTON		BADMINTON	OFF	Cat_Restudy_L1		7	Study	No	3	Cat_Restudy_L1	ON		3000								
AQ4XLFW94PEAB	Collector	1	16	2016-05-26T11:41:38-07:00	29	1	Stimuli/versionEstim.txt	Procedure/versionEproc.txt	Tetris		TRACK		TRACK	OFF	Cat_Restudy_L1		5	Study	No	3	Cat_Restudy_L1	ON		3000								
AQ4XLFW94PEAB	Collector	1	17	2016-05-26T11:41:41-07:00	3	1	Stimuli/versionEstim.txt	Procedure/versionEproc.txt	Tetris		WRESTLING		WRESTLING	OFF	Cat_Restudy_L1		9	Study	No	3	Cat_Restudy_L1	ON		3000								
AQ4XLFW94PEAB	Collector	1	18	2016-05-26T11:41:47-07:00	6	1	Stimuli/versionEstim.txt	Procedure/versionEproc.txt	Tetris		GYMNASTICS		GYMNASTICS	OFF	Cat_Restudy_L1		20	Study	No	3	Cat_Restudy_L1	ON		3000								
AQ4XLFW94PEAB	Collector	1	19	2016-05-26T11:41:51-07:00	4	1	Stimuli/versionEstim.txt	Procedure/versionEproc.txt	Tetris		FISHING		FISHING	OFF	Cat_Restudy_L1		16	Study	No	3	Cat_Restudy_L1	ON		3000								
AQ4XLFW94PEAB	Collector	1	20	2016-05-26T11:41:54-07:00	3	1	Stimuli/versionEstim.txt	Procedure/versionEproc.txt	Tetris		ARCHERY		ARCHERY	OFF	Cat_Restudy_L1		11	Study	No	3	Cat_Restudy_L1	ON		3000								
AQ4XLFW94PEAB	Collector	1	21	2016-05-26T11:41:58-07:00	4	1	Stimuli/versionEstim.txt	Procedure/versionEproc.txt	Tetris		LACROSSE		LACROSSE	OFF	Cat_Restudy_L1		6	Study	No	3	Cat_Restudy_L1	ON		3000								
AQ4XLFW94PEAB	Collector	1	22	2016-05-26T11:42:03-07:00	5	1	Stimuli/versionEstim.txt	Procedure/versionEproc.txt	Tetris		n/a	n/a	n/a	n/a	n/a	n/a	0	Instruct	N/A	User	Restudy Instructions: You will now view this list again, but in a different order. Click the button below to begin.	OFF		3940								
AQ4XLFW94PEAB	Collector	1	23	2016-05-26T11:42:07-07:00	4	1	Stimuli/versionEstim.txt	Procedure/versionEproc.txt	Tetris		BOWLING		BOWLING	OFF	Cat_Restudy_L1		28	Study	No	3	Cat_Restudy_L1	ON		3000								
AQ4XLFW94PEAB	Collector	1	24	2016-05-26T11:42:11-07:00	4	1	Stimuli/versionEstim.txt	Procedure/versionEproc.txt	Tetris		SOCCER		SOCCER	OFF	Cat_Restudy_L1		22	Study	No	3	Cat_Restudy_L1	ON		3000								
AQ4XLFW94PEAB	Collector	1	25	2016-05-26T11:42:14-07:00	3	1	Stimuli/versionEstim.txt	Procedure/versionEproc.txt	Tetris		BADMINTON		BADMINTON	OFF	Cat_Restudy_L1		27	Study	No	3	Cat_Restudy_L1	ON		3000								
AQ4XLFW94PEAB	Collector	1	26	2016-05-26T11:42:18-07:00	4	1	Stimuli/versionEstim.txt	Procedure/versionEproc.txt	Tetris		FISHING		FISHING	OFF	Cat_Restudy_L1		36	Study	No	3	Cat_Restudy_L1	ON		3000								
AQ4XLFW94PEAB	Collector	1	27	2016-05-26T11:42:22-07:00	4	1	Stimuli/versionEstim.txt	Procedure/versionEproc.txt	Tetris		ARCHERY		ARCHERY	OFF	Cat_Restudy_L1		31	Study	No	3	Cat_Restudy_L1	ON		3000								
AQ4XLFW94PEAB	Collector	1	28	2016-05-26T11:42:26-07:00	4	1	Stimuli/versionEstim.txt	Procedure/versionEproc.txt	Tetris		GOLF		GOLF	OFF	Cat_Restudy_L1		23	Study	No	3	Cat_Restudy_L1	ON		3000								
AQ4XLFW94PEAB	Collector	1	29	2016-05-26T11:42:30-07:00	4	1	Stimuli/versionEstim.txt	Procedure/versionEproc.txt	Tetris		SKIING		SKIING	OFF	Cat_Restudy_L1		32	Study	No	3	Cat_Restudy_L1	ON		3000								
AQ4XLFW94PEAB	Collector	1	30	2016-05-26T11:42:33-07:00	3	1	Stimuli/versionEstim.txt	Procedure/versionEproc.txt	Tetris		BOXING		BOXING	OFF	Cat_Restudy_L1		38	Study	No	3	Cat_Restudy_L1	ON		3000								
AQ4XLFW94PEAB	Collector	1	31	2016-05-26T11:42:37-07:00	4	1	Stimuli/versionEstim.txt	Procedure/versionEproc.txt	Tetris		GYMNASTICS		GYMNASTICS	OFF	Cat_Restudy_L1		40	Study	No	3	Cat_Restudy_L1	ON		3000								
AQ4XLFW94PEAB	Collector	1	32	2016-05-26T11:42:49-07:00	12	1	Stimuli/versionEstim.txt	Procedure/versionEproc.txt	Tetris		RUGBY		RUGBY	OFF	Cat_Restudy_L1		39	Study	No	3	Cat_Restudy_L1	ON		3000								
AQ4XLFW94PEAB	Collector	1	33	2016-05-26T11:42:53-07:00	4	1	Stimuli/versionEstim.txt	Procedure/versionEproc.txt	Tetris		RACING		RACING	OFF	Cat_Restudy_L1		41	Study	No	3	Cat_Restudy_L1	ON		3000								
AQ4XLFW94PEAB	Collector	1	34	2016-05-26T11:42:57-07:00	4	1	Stimuli/versionEstim.txt	Procedure/versionEproc.txt	Tetris		PING-PONG		PING-PONG	OFF	Cat_Restudy_L1		34	Study	No	3	Cat_Restudy_L1	ON		3000								
AQ4XLFW94PEAB	Collector	1	35	2016-05-26T11:43:01-07:00	4	1	Stimuli/versionEstim.txt	Procedure/versionEproc.txt	Tetris		VOLLEYBALL		VOLLEYBALL	OFF	Cat_Restudy_L1		30	Study	No	3	Cat_Restudy_L1	ON		3000								
AQ4XLFW94PEAB	Collector	1	36	2016-05-26T11:43:04-07:00	3	1	Stimuli/versionEstim.txt	Procedure/versionEproc.txt	Tetris		HOCKEY		HOCKEY	OFF	Cat_Restudy_L1		24	Study	No	3	Cat_Restudy_L1	ON		3000								
AQ4XLFW94PEAB	Collector	1	37	2016-05-26T11:43:08-07:00	4	1	Stimuli/versionEstim.txt	Procedure/versionEproc.txt	Tetris		WRESTLING		WRESTLING	OFF	Cat_Restudy_L1		29	Study	No	3	Cat_Restudy_L1	ON		3000								
AQ4XLFW94PEAB	Collector	1	38	2016-05-26T11:43:12-07:00	4	1	Stimuli/versionEstim.txt	Procedure/versionEproc.txt	Tetris		FENCING		FENCING	OFF	Cat_Restudy_L1		33	Study	No	3	Cat_Restudy_L1	ON		3000								
AQ4XLFW94PEAB	Collector	1	39	2016-05-26T11:43:16-07:00	4	1	Stimuli/versionEstim.txt	Procedure/versionEproc.txt	Tetris		TRACK		TRACK	OFF	Cat_Restudy_L1		25	Study	No	3	Cat_Restudy_L1	ON		3000								
AQ4XLFW94PEAB	Collector	1	40	2016-05-26T11:43:20-07:00	4	1	Stimuli/versionEstim.txt	Procedure/versionEproc.txt	Tetris		POLO		POLO	OFF	Cat_Restudy_L1		37	Study	No	3	Cat_Restudy_L1	ON		3000								
AQ4XLFW94PEAB	Collector	1	41	2016-05-26T11:43:24-07:00	4	1	Stimuli/versionEstim.txt	Procedure/versionEproc.txt	Tetris		LACROSSE		LACROSSE	OFF	Cat_Restudy_L1		26	Study	No	3	Cat_Restudy_L1	ON		3000								
AQ4XLFW94PEAB	Collector	1	42	2016-05-26T11:43:28-07:00	4	1	Stimuli/versionEstim.txt	Procedure/versionEproc.txt	Tetris		SOFTBALL		SOFTBALL	OFF	Cat_Restudy_L1		35	Study	No	3	Cat_Restudy_L1	ON		3000								
AQ4XLFW94PEAB	Collector	1	43	2016-05-26T11:43:33-07:00	5	1	Stimuli/versionEstim.txt	Procedure/versionEproc.txt	Tetris		n/a	n/a	n/a	n/a	n/a	n/a	0	Instruct	N/A	User	Click the button below for a new list.	OFF		4750								
AQ4XLFW94PEAB	Collector	1	44	2016-05-26T11:43:37-07:00	4	1	Stimuli/versionEstim.txt	Procedure/versionEproc.txt	Tetris		SPOON		SPOON	OFF	AdHoc_Restudy_L2		52	Study	No	3	AdHoc_Restudy_L2	ON		3000								
AQ4XLFW94PEAB	Collector	1	45	2016-05-26T11:43:41-07:00	4	1	Stimuli/versionEstim.txt	Procedure/versionEproc.txt	Tetris		FORK		FORK	OFF	AdHoc_Restudy_L2		53	Study	No	3	AdHoc_Restudy_L2	ON		3000								
AQ4XLFW94PEAB	Collector	1	46	2016-05-26T11:43:45-07:00	4	1	Stimuli/versionEstim.txt	Procedure/versionEproc.txt	Tetris		MUG		MUG	OFF	AdHoc_Restudy_L2		50	Study	No	3	AdHoc_Restudy_L2	ON		3000								
AQ4XLFW94PEAB	Collector	1	47	2016-05-26T11:43:49-07:00	4	1	Stimuli/versionEstim.txt	Procedure/versionEproc.txt	Tetris		MEASURING CUP		MEASURING CUP	OFF	AdHoc_Restudy_L2		49	Study	No	3	AdHoc_Restudy_L2	ON		3000								
AQ4XLFW94PEAB	Collector	1	48	2016-05-26T11:43:53-07:00	4	1	Stimuli/versionEstim.txt	Procedure/versionEproc.txt	Tetris		POTS		POTS	OFF	AdHoc_Restudy_L2		59	Study	No	3	AdHoc_Restudy_L2	ON		3000								
AQ4XLFW94PEAB	Collector	1	49	2016-05-26T11:43:56-07:00	3	1	Stimuli/versionEstim.txt	Procedure/versionEproc.txt	Tetris		SAUCE PAN		SAUCE PAN	OFF	AdHoc_Restudy_L2		54	Study	No	3	AdHoc_Restudy_L2	ON		3000								
AQ4XLFW94PEAB	Collector	1	50	2016-05-26T11:44:00-07:00	4	1	Stimuli/versionEstim.txt	Procedure/versionEproc.txt	Tetris		PLATTER		PLATTER	OFF	AdHoc_Restudy_L2		45	Study	No	3	AdHoc_Restudy_L2	ON		3000								
AQ4XLFW94PEAB	Collector	1	51	2016-05-26T11:44:05-07:00	5	1	Stimuli/versionEstim.txt	Procedure/versionEproc.txt	Tetris		SPICE RACK		SPICE RACK	OFF	AdHoc_Restudy_L2		60	Study	No	3	AdHoc_Restudy_L2	ON		3000								
AQ4XLFW94PEAB	Collector	1	52	2016-05-26T11:44:09-07:00	4	1	Stimuli/versionEstim.txt	Procedure/versionEproc.txt	Tetris		CAN OPENER		CAN OPENER	OFF	AdHoc_Restudy_L2		58	Study	No	3	AdHoc_Restudy_L2	ON		3000								
AQ4XLFW94PEAB	Collector	1	53	2016-05-26T11:44:13-07:00	4	1	Stimuli/versionEstim.txt	Procedure/versionEproc.txt	Tetris		KETTLE		KETTLE	OFF	AdHoc_Restudy_L2		44	Study	No	3	AdHoc_Restudy_L2	ON		3000								
AQ4XLFW94PEAB	Collector	1	54	2016-05-26T11:44:17-07:00	4	1	Stimuli/versionEstim.txt	Procedure/versionEproc.txt	Tetris		PLATE		PLATE	OFF	AdHoc_Restudy_L2		46	Study	No	3	AdHoc_Restudy_L2	ON		3000								
AQ4XLFW94PEAB	Collector	1	55	2016-05-26T11:44:21-07:00	4	1	Stimuli/versionEstim.txt	Procedure/versionEproc.txt	Tetris		STOVE		STOVE	OFF	AdHoc_Restudy_L2		61	Study	No	3	AdHoc_Restudy_L2	ON		3000								
AQ4XLFW94PEAB	Collector	1	56	2016-05-26T11:44:25-07:00	4	1	Stimuli/versionEstim.txt	Procedure/versionEproc.txt	Tetris		GLASS		GLASS	OFF	AdHoc_Restudy_L2		51	Study	No	3	AdHoc_Restudy_L2	ON		3000								
AQ4XLFW94PEAB	Collector	1	57	2016-05-26T11:44:29-07:00	4	1	Stimuli/versionEstim.txt	Procedure/versionEproc.txt	Tetris		SKILLET		SKILLET	OFF	AdHoc_Restudy_L2		55	Study	No	3	AdHoc_Restudy_L2	ON		3000								
AQ4XLFW94PEAB	Collector	1	58	2016-05-26T11:44:32-07:00	3	1	Stimuli/versionEstim.txt	Procedure/versionEproc.txt	Tetris		MIXER		MIXER	OFF	AdHoc_Restudy_L2		57	Study	No	3	AdHoc_Restudy_L2	ON		3000								
AQ4XLFW94PEAB	Collector	1	59	2016-05-26T11:44:36-07:00	4	1	Stimuli/versionEstim.txt	Procedure/versionEproc.txt	Tetris		STRAINER		STRAINER	OFF	AdHoc_Restudy_L2		56	Study	No	3	AdHoc_Restudy_L2	ON		3000								
AQ4XLFW94PEAB	Collector	1	60	2016-05-26T11:44:40-07:00	4	1	Stimuli/versionEstim.txt	Procedure/versionEproc.txt	Tetris		BOWL		BOWL	OFF	AdHoc_Restudy_L2		47	Study	No	3	AdHoc_Restudy_L2	ON		3000								
AQ4XLFW94PEAB	Collector	1	61	2016-05-26T11:44:44-07:00	4	1	Stimuli/versionEstim.txt	Procedure/versionEproc.txt	Tetris		KNIFE		KNIFE	OFF	AdHoc_Restudy_L2		43	Study	No	3	AdHoc_Restudy_L2	ON		3000								
AQ4XLFW94PEAB	Collector	1	62	2016-05-26T11:44:48-07:00	4	1	Stimuli/versionEstim.txt	Procedure/versionEproc.txt	Tetris		FREEZER		FREEZER	OFF	AdHoc_Restudy_L2		42	Study	No	3	AdHoc_Restudy_L2	ON		3000								
AQ4XLFW94PEAB	Collector	1	63	2016-05-26T11:44:51-07:00	3	1	Stimuli/versionEstim.txt	Procedure/versionEproc.txt	Tetris		OVEN MITTS		OVEN MITTS	OFF	AdHoc_Restudy_L2		48	Study	No	3	AdHoc_Restudy_L2	ON		3000								
AQ4XLFW94PEAB	Collector	1	64	2016-05-26T11:44:56-07:00	5	1	Stimuli/versionEstim.txt	Procedure/versionEproc.txt	Tetris		n/a	n/a	n/a	n/a	n/a	n/a	0	Instruct	N/A	User	Restudy Instructions: You will now view this list again, but in a different order. Click the button below to begin.	OFF		3180								
AQ4XLFW94PEAB	Collector	1	65	2016-05-26T11:45:04-07:00	8	1	Stimuli/versionEstim.txt	Procedure/versionEproc.txt	Tetris		SPOON		SPOON	OFF	AdHoc_Restudy_L2		72	Study	No	3	AdHoc_Restudy_L2	ON		3000								
AQ4XLFW94PEAB	Collector	1	66	2016-05-26T11:45:08-07:00	4	1	Stimuli/versionEstim.txt	Procedure/versionEproc.txt	Tetris		MEASURING CUP		MEASURING CUP	OFF	AdHoc_Restudy_L2		69	Study	No	3	AdHoc_Restudy_L2	ON		3000								
AQ4XLFW94PEAB	Collector	1	67	2016-05-26T11:45:12-07:00	4	1	Stimuli/versionEstim.txt	Procedure/versionEproc.txt	Tetris		CAN OPENER		CAN OPENER	OFF	AdHoc_Restudy_L2		78	Study	No	3	AdHoc_Restudy_L2	ON		3000								
AQ4XLFW94PEAB	Collector	1	68	2016-05-26T11:45:15-07:00	3	1	Stimuli/versionEstim.txt	Procedure/versionEproc.txt	Tetris		STOVE		STOVE	OFF	AdHoc_Restudy_L2		81	Study	No	3	AdHoc_Restudy_L2	ON		3000								
AQ4XLFW94PEAB	Collector	1	69	2016-05-26T11:45:19-07:00	4	1	Stimuli/versionEstim.txt	Procedure/versionEproc.txt	Tetris		STRAINER		STRAINER	OFF	AdHoc_Restudy_L2		76	Study	No	3	AdHoc_Restudy_L2	ON		3000								
AQ4XLFW94PEAB	Collector	1	70	2016-05-26T11:45:23-07:00	4	1	Stimuli/versionEstim.txt	Procedure/versionEproc.txt	Tetris		PLATTER		PLATTER	OFF	AdHoc_Restudy_L2		65	Study	No	3	AdHoc_Restudy_L2	ON		3000								
AQ4XLFW94PEAB	Collector	1	71	2016-05-26T11:45:27-07:00	4	1	Stimuli/versionEstim.txt	Procedure/versionEproc.txt	Tetris		OVEN MITTS		OVEN MITTS	OFF	AdHoc_Restudy_L2		68	Study	No	3	AdHoc_Restudy_L2	ON		3000								
AQ4XLFW94PEAB	Collector	1	72	2016-05-26T11:45:35-07:00	8	1	Stimuli/versionEstim.txt	Procedure/versionEproc.txt	Tetris		SKILLET		SKILLET	OFF	AdHoc_Restudy_L2		75	Study	No	3	AdHoc_Restudy_L2	ON		3000								
AQ4XLFW94PEAB	Collector	1	73	2016-05-26T11:45:39-07:00	4	1	Stimuli/versionEstim.txt	Procedure/versionEproc.txt	Tetris		PLATE		PLATE	OFF	AdHoc_Restudy_L2		66	Study	No	3	AdHoc_Restudy_L2	ON		3000								
AQ4XLFW94PEAB	Collector	1	74	2016-05-26T11:45:43-07:00	4	1	Stimuli/versionEstim.txt	Procedure/versionEproc.txt	Tetris		GLASS		GLASS	OFF	AdHoc_Restudy_L2		71	Study	No	3	AdHoc_Restudy_L2	ON		3000								
AQ4XLFW94PEAB	Collector	1	75	2016-05-26T11:45:47-07:00	4	1	Stimuli/versionEstim.txt	Procedure/versionEproc.txt	Tetris		MUG		MUG	OFF	AdHoc_Restudy_L2		70	Study	No	3	AdHoc_Restudy_L2	ON		3000								
AQ4XLFW94PEAB	Collector	1	76	2016-05-26T11:45:51-07:00	4	1	Stimuli/versionEstim.txt	Procedure/versionEproc.txt	Tetris		KNIFE		KNIFE	OFF	AdHoc_Restudy_L2		63	Study	No	3	AdHoc_Restudy_L2	ON		3000								
AQ4XLFW94PEAB	Collector	1	77	2016-05-26T11:45:55-07:00	4	1	Stimuli/versionEstim.txt	Procedure/versionEproc.txt	Tetris		BOWL		BOWL	OFF	AdHoc_Restudy_L2		67	Study	No	3	AdHoc_Restudy_L2	ON		3000								
AQ4XLFW94PEAB	Collector	1	78	2016-05-26T11:45:59-07:00	4	1	Stimuli/versionEstim.txt	Procedure/versionEproc.txt	Tetris		FREEZER		FREEZER	OFF	AdHoc_Restudy_L2		62	Study	No	3	AdHoc_Restudy_L2	ON		3000								
AQ4XLFW94PEAB	Collector	1	79	2016-05-26T11:46:03-07:00	4	1	Stimuli/versionEstim.txt	Procedure/versionEproc.txt	Tetris		MIXER		MIXER	OFF	AdHoc_Restudy_L2		77	Study	No	3	AdHoc_Restudy_L2	ON		3000								
AQ4XLFW94PEAB	Collector	1	80	2016-05-26T11:46:07-07:00	4	1	Stimuli/versionEstim.txt	Procedure/versionEproc.txt	Tetris		KETTLE		KETTLE	OFF	AdHoc_Restudy_L2		64	Study	No	3	AdHoc_Restudy_L2	ON		3000								
AQ4XLFW94PEAB	Collector	1	81	2016-05-26T11:46:11-07:00	4	1	Stimuli/versionEstim.txt	Procedure/versionEproc.txt	Tetris		FORK		FORK	OFF	AdHoc_Restudy_L2		73	Study	No	3	AdHoc_Restudy_L2	ON		3000								
AQ4XLFW94PEAB	Collector	1	82	2016-05-26T11:46:15-07:00	4	1	Stimuli/versionEstim.txt	Procedure/versionEproc.txt	Tetris		SPICE RACK		SPICE RACK	OFF	AdHoc_Restudy_L2		80	Study	No	3	AdHoc_Restudy_L2	ON		3000								
AQ4XLFW94PEAB	Collector	1	83	2016-05-26T11:46:20-07:00	5	1	Stimuli/versionEstim.txt	Procedure/versionEproc.txt	Tetris		SAUCE PAN		SAUCE PAN	OFF	AdHoc_Restudy_L2		74	Study	No	3	AdHoc_Restudy_L2	ON		3000								
AQ4XLFW94PEAB	Collector	1	84	2016-05-26T11:46:38-07:00	18	1	Stimuli/versionEstim.txt	Procedure/versionEproc.txt	Tetris		POTS		POTS	OFF	AdHoc_Restudy_L2		79	Study	No	3	AdHoc_Restudy_L2	ON		3000								
AQ4XLFW94PEAB	Collector	1	85	2016-05-26T11:46:45-07:00	7	1	Stimuli/versionEstim.txt	Procedure/versionEproc.txt	Tetris		n/a	n/a	n/a	n/a	n/a	n/a	0	Instruct	N/A	User	Click the button below for a new list.	OFF		5270								
AQ4XLFW94PEAB	Collector	1	86	2016-05-26T11:46:49-07:00	4	1	Stimuli/versionEstim.txt	Procedure/versionEproc.txt	Tetris		MOAT		MOAT	OFF	Unrel_Restudy_L3		90	Study	No	3	Unrel_Restudy_L3	ON		3000								
AQ4XLFW94PEAB	Collector	1	87	2016-05-26T11:47:01-07:00	12	1	Stimuli/versionEstim.txt	Procedure/versionEproc.txt	Tetris		SKEWERS		SKEWERS	OFF	Unrel_Restudy_L3		88	Study	No	3	Unrel_Restudy_L3	ON		3000								
AQ4XLFW94PEAB	Collector	1	88	2016-05-26T11:47:05-07:00	4	1	Stimuli/versionEstim.txt	Procedure/versionEproc.txt	Tetris		PASTE		PASTE	OFF	Unrel_Restudy_L3		93	Study	No	3	Unrel_Restudy_L3	ON		3000								
AQ4XLFW94PEAB	Collector	1	89	2016-05-26T11:47:10-07:00	5	1	Stimuli/versionEstim.txt	Procedure/versionEproc.txt	Tetris		PIT		PIT	OFF	Unrel_Restudy_L3		89	Study	No	3	Unrel_Restudy_L3	ON		3000								
AQ4XLFW94PEAB	Collector	1	90	2016-05-26T11:47:14-07:00	4	1	Stimuli/versionEstim.txt	Procedure/versionEproc.txt	Tetris		TUNE		TUNE	OFF	Unrel_Restudy_L3		91	Study	No	3	Unrel_Restudy_L3	ON		3000								
AQ4XLFW94PEAB	Collector	1	91	2016-05-26T11:47:19-07:00	5	1	Stimuli/versionEstim.txt	Procedure/versionEproc.txt	Tetris		PALE		PALE	OFF	Unrel_Restudy_L3		84	Study	No	3	Unrel_Restudy_L3	ON		3000								
AQ4XLFW94PEAB	Collector	1	92	2016-05-26T11:47:23-07:00	4	1	Stimuli/versionEstim.txt	Procedure/versionEproc.txt	Tetris		WASHCLOTH		WASHCLOTH	OFF	Unrel_Restudy_L3		98	Study	No	3	Unrel_Restudy_L3	ON		3000								
AQ4XLFW94PEAB	Collector	1	93	2016-05-26T11:47:27-07:00	4	1	Stimuli/versionEstim.txt	Procedure/versionEproc.txt	Tetris		WIRE		WIRE	OFF	Unrel_Restudy_L3		85	Study	No	3	Unrel_Restudy_L3	ON		3000								
AQ4XLFW94PEAB	Collector	1	94	2016-05-26T11:47:31-07:00	4	1	Stimuli/versionEstim.txt	Procedure/versionEproc.txt	Tetris		PRESS		PRESS	OFF	Unrel_Restudy_L3		97	Study	No	3	Unrel_Restudy_L3	ON		3000								
AQ4XLFW94PEAB	Collector	1	95	2016-05-26T11:47:35-07:00	4	1	Stimuli/versionEstim.txt	Procedure/versionEproc.txt	Tetris		PICKLE		PICKLE	OFF	Unrel_Restudy_L3		82	Study	No	3	Unrel_Restudy_L3	ON		3000								
AQ4XLFW94PEAB	Collector	1	96	2016-05-26T11:47:38-07:00	3	1	Stimuli/versionEstim.txt	Procedure/versionEproc.txt	Tetris		ARROW		ARROW	OFF	Unrel_Restudy_L3		87	Study	No	3	Unrel_Restudy_L3	ON		3000								
AQ4XLFW94PEAB	Collector	1	97	2016-05-26T11:47:46-07:00	8	1	Stimuli/versionEstim.txt	Procedure/versionEproc.txt	Tetris		SHOP		SHOP	OFF	Unrel_Restudy_L3		101	Study	No	3	Unrel_Restudy_L3	ON		3000								
AQ4XLFW94PEAB	Collector	1	98	2016-05-26T11:47:50-07:00	4	1	Stimuli/versionEstim.txt	Procedure/versionEproc.txt	Tetris		SHELTER		SHELTER	OFF	Unrel_Restudy_L3		100	Study	No	3	Unrel_Restudy_L3	ON		3000								
AQ4XLFW94PEAB	Collector	1	99	2016-05-26T11:47:54-07:00	4	1	Stimuli/versionEstim.txt	Procedure/versionEproc.txt	Tetris		PENNY		PENNY	OFF	Unrel_Restudy_L3		86	Study	No	3	Unrel_Restudy_L3	ON		3000								
AQ4XLFW94PEAB	Collector	1	100	2016-05-26T11:47:58-07:00	4	1	Stimuli/versionEstim.txt	Procedure/versionEproc.txt	Tetris		DINER		DINER	OFF	Unrel_Restudy_L3		95	Study	No	3	Unrel_Restudy_L3	ON		3000								
AQ4XLFW94PEAB	Collector	1	101	2016-05-26T11:48:02-07:00	4	1	Stimuli/versionEstim.txt	Procedure/versionEproc.txt	Tetris		TORTOISE		TORTOISE	OFF	Unrel_Restudy_L3		92	Study	No	3	Unrel_Restudy_L3	ON		3000								
AQ4XLFW94PEAB	Collector	1	102	2016-05-26T11:48:06-07:00	4	1	Stimuli/versionEstim.txt	Procedure/versionEproc.txt	Tetris		KAYAK		KAYAK	OFF	Unrel_Restudy_L3		99	Study	No	3	Unrel_Restudy_L3	ON		3000								
AQ4XLFW94PEAB	Collector	1	103	2016-05-26T11:48:10-07:00	4	1	Stimuli/versionEstim.txt	Procedure/versionEproc.txt	Tetris		MANE		MANE	OFF	Unrel_Restudy_L3		96	Study	No	3	Unrel_Restudy_L3	ON		3000								
AQ4XLFW94PEAB	Collector	1	104	2016-05-26T11:48:14-07:00	4	1	Stimuli/versionEstim.txt	Procedure/versionEproc.txt	Tetris		FLASK		FLASK	OFF	Unrel_Restudy_L3		83	Study	No	3	Unrel_Restudy_L3	ON		3000								
AQ4XLFW94PEAB	Collector	1	105	2016-05-26T11:48:17-07:00	3	1	Stimuli/versionEstim.txt	Procedure/versionEproc.txt	Tetris		PATRON		PATRON	OFF	Unrel_Restudy_L3		94	Study	No	3	Unrel_Restudy_L3	ON		3000								
AQ4XLFW94PEAB	Collector	1	106	2016-05-26T11:48:25-07:00	8	1	Stimuli/versionEstim.txt	Procedure/versionEproc.txt	Tetris		n/a	n/a	n/a	n/a	n/a	n/a	0	Instruct	N/A	User	Restudy Instructions: You will now view this list again, but in a different order. Click the button below to begin.	OFF		5290								
AQ4XLFW94PEAB	Collector	1	107	2016-05-26T11:48:28-07:00	3	1	Stimuli/versionEstim.txt	Procedure/versionEproc.txt	Tetris		PICKLE		PICKLE	OFF	Unrel_Restudy_L3		102	Study	No	3	Unrel_Restudy_L3	ON		3000								
AQ4XLFW94PEAB	Collector	1	108	2016-05-26T11:48:35-07:00	7	1	Stimuli/versionEstim.txt	Procedure/versionEproc.txt	Tetris		SHOP		SHOP	OFF	Unrel_Restudy_L3		121	Study	No	3	Unrel_Restudy_L3	ON		3000								
AQ4XLFW94PEAB	Collector	1	109	2016-05-26T11:48:39-07:00	4	1	Stimuli/versionEstim.txt	Procedure/versionEproc.txt	Tetris		TORTOISE		TORTOISE	OFF	Unrel_Restudy_L3		112	Study	No	3	Unrel_Restudy_L3	ON		3000								
AQ4XLFW94PEAB	Collector	1	110	2016-05-26T11:48:43-07:00	4	1	Stimuli/versionEstim.txt	Procedure/versionEproc.txt	Tetris		MOAT		MOAT	OFF	Unrel_Restudy_L3		110	Study	No	3	Unrel_Restudy_L3	ON		3000								
AQ4XLFW94PEAB	Collector	1	111	2016-05-26T11:48:46-07:00	3	1	Stimuli/versionEstim.txt	Procedure/versionEproc.txt	Tetris		SKEWERS		SKEWERS	OFF	Unrel_Restudy_L3		108	Study	No	3	Unrel_Restudy_L3	ON		3000								
AQ4XLFW94PEAB	Collector	1	112	2016-05-26T11:48:50-07:00	4	1	Stimuli/versionEstim.txt	Procedure/versionEproc.txt	Tetris		WASHCLOTH		WASHCLOTH	OFF	Unrel_Restudy_L3		118	Study	No	3	Unrel_Restudy_L3	ON		3000								
AQ4XLFW94PEAB	Collector	1	113	2016-05-26T11:48:54-07:00	4	1	Stimuli/versionEstim.txt	Procedure/versionEproc.txt	Tetris		SHELTER		SHELTER	OFF	Unrel_Restudy_L3		120	Study	No	3	Unrel_Restudy_L3	ON		3000								
AQ4XLFW94PEAB	Collector	1	114	2016-05-26T11:48:58-07:00	4	1	Stimuli/versionEstim.txt	Procedure/versionEproc.txt	Tetris		PASTE		PASTE	OFF	Unrel_Restudy_L3		113	Study	No	3	Unrel_Restudy_L3	ON		3000								
AQ4XLFW94PEAB	Collector	1	115	2016-05-26T11:49:02-07:00	4	1	Stimuli/versionEstim.txt	Procedure/versionEproc.txt	Tetris		PIT		PIT	OFF	Unrel_Restudy_L3		109	Study	No	3	Unrel_Restudy_L3	ON		3000								
AQ4XLFW94PEAB	Collector	1	116	2016-05-26T11:49:06-07:00	4	1	Stimuli/versionEstim.txt	Procedure/versionEproc.txt	Tetris		DINER		DINER	OFF	Unrel_Restudy_L3		115	Study	No	3	Unrel_Restudy_L3	ON		3000								
AQ4XLFW94PEAB	Collector	1	117	2016-05-26T11:49:13-07:00	7	1	Stimuli/versionEstim.txt	Procedure/versionEproc.txt	Tetris		FLASK		FLASK	OFF	Unrel_Restudy_L3		103	Study	No	3	Unrel_Restudy_L3	ON		3000								
AQ4XLFW94PEAB	Collector	1	118	2016-05-26T11:49:17-07:00	4	1	Stimuli/versionEstim.txt	Procedure/versionEproc.txt	Tetris		ARROW		ARROW	OFF	Unrel_Restudy_L3		107	Study	No	3	Unrel_Restudy_L3	ON		3000								
AQ4XLFW94PEAB	Collector	1	119	2016-05-26T11:49:21-07:00	4	1	Stimuli/versionEstim.txt	Procedure/versionEproc.txt	Tetris		TUNE		TUNE	OFF	Unrel_Restudy_L3		111	Study	No	3	Unrel_Restudy_L3	ON		3000								
AQ4XLFW94PEAB	Collector	1	120	2016-05-26T11:49:30-07:00	9	1	Stimuli/versionEstim.txt	Procedure/versionEproc.txt	Tetris		KAYAK		KAYAK	OFF	Unrel_Restudy_L3		119	Study	No	3	Unrel_Restudy_L3	ON		3000								
AQ4XLFW94PEAB	Collector	1	121	2016-05-26T11:49:34-07:00	4	1	Stimuli/versionEstim.txt	Procedure/versionEproc.txt	Tetris		MANE		MANE	OFF	Unrel_Restudy_L3		116	Study	No	3	Unrel_Restudy_L3	ON		3000								
AQ4XLFW94PEAB	Collector	1	122	2016-05-26T11:49:40-07:00	6	1	Stimuli/versionEstim.txt	Procedure/versionEproc.txt	Tetris		PALE		PALE	OFF	Unrel_Restudy_L3		104	Study	No	3	Unrel_Restudy_L3	ON		3000								
AQ4XLFW94PEAB	Collector	1	123	2016-05-26T11:49:44-07:00	4	1	Stimuli/versionEstim.txt	Procedure/versionEproc.txt	Tetris		WIRE		WIRE	OFF	Unrel_Restudy_L3		105	Study	No	3	Unrel_Restudy_L3	ON		3000								
AQ4XLFW94PEAB	Collector	1	124	2016-05-26T11:49:48-07:00	4	1	Stimuli/versionEstim.txt	Procedure/versionEproc.txt	Tetris		PRESS		PRESS	OFF	Unrel_Restudy_L3		117	Study	No	3	Unrel_Restudy_L3	ON		3000								
AQ4XLFW94PEAB	Collector	1	125	2016-05-26T11:49:52-07:00	4	1	Stimuli/versionEstim.txt	Procedure/versionEproc.txt	Tetris		PATRON		PATRON	OFF	Unrel_Restudy_L3		114	Study	No	3	Unrel_Restudy_L3	ON		3000								
AQ4XLFW94PEAB	Collector	1	126	2016-05-26T11:49:56-07:00	4	1	Stimuli/versionEstim.txt	Procedure/versionEproc.txt	Tetris		PENNY		PENNY	OFF	Unrel_Restudy_L3		106	Study	No	3	Unrel_Restudy_L3	ON		3000								
AQ4XLFW94PEAB	Collector	1	127	2016-05-26T11:49:59-07:00	3	1	Stimuli/versionEstim.txt	Procedure/versionEproc.txt	Tetris		n/a	n/a	n/a	n/a	n/a	n/a	0	Instruct	N/A	User	Click the button below for a new list.	OFF		2830								
AQ4XLFW94PEAB	Collector	1	128	2016-05-26T11:50:05-07:00	6	1	Stimuli/versionEstim.txt	Procedure/versionEproc.txt	Tetris		HATCHET		HATCHET	OFF	Unrel_Restudy_L4		138	Study	No	3	Unrel_Restudy_L4	ON		3000								
AQ4XLFW94PEAB	Collector	1	129	2016-05-26T11:50:09-07:00	4	1	Stimuli/versionEstim.txt	Procedure/versionEproc.txt	Tetris		GALLERY		GALLERY	OFF	Unrel_Restudy_L4		137	Study	No	3	Unrel_Restudy_L4	ON		3000								
AQ4XLFW94PEAB	Collector	1	130	2016-05-26T11:50:13-07:00	4	1	Stimuli/versionEstim.txt	Procedure/versionEproc.txt	Tetris		TRICYCLE		TRICYCLE	OFF	Unrel_Restudy_L4		131	Study	No	3	Unrel_Restudy_L4	ON		3000								
AQ4XLFW94PEAB	Collector	1	131	2016-05-26T11:50:17-07:00	4	1	Stimuli/versionEstim.txt	Procedure/versionEproc.txt	Tetris		DUGOUT		DUGOUT	OFF	Unrel_Restudy_L4		125	Study	No	3	Unrel_Restudy_L4	ON		3000								
AQ4XLFW94PEAB	Collector	1	132	2016-05-26T11:50:21-07:00	4	1	Stimuli/versionEstim.txt	Procedure/versionEproc.txt	Tetris		FERRY		FERRY	OFF	Unrel_Restudy_L4		122	Study	No	3	Unrel_Restudy_L4	ON		3000								
AQ4XLFW94PEAB	Collector	1	133	2016-05-26T11:50:25-07:00	4	1	Stimuli/versionEstim.txt	Procedure/versionEproc.txt	Tetris		SEED		SEED	OFF	Unrel_Restudy_L4		139	Study	No	3	Unrel_Restudy_L4	ON		3000								
AQ4XLFW94PEAB	Collector	1	134	2016-05-26T11:50:29-07:00	4	1	Stimuli/versionEstim.txt	Procedure/versionEproc.txt	Tetris		STATION		STATION	OFF	Unrel_Restudy_L4		127	Study	No	3	Unrel_Restudy_L4	ON		3000								
AQ4XLFW94PEAB	Collector	1	135	2016-05-26T11:50:33-07:00	4	1	Stimuli/versionEstim.txt	Procedure/versionEproc.txt	Tetris		COOKIE		COOKIE	OFF	Unrel_Restudy_L4		133	Study	No	3	Unrel_Restudy_L4	ON		3000								
AQ4XLFW94PEAB	Collector	1	136	2016-05-26T11:50:37-07:00	4	1	Stimuli/versionEstim.txt	Procedure/versionEproc.txt	Tetris		BANNER		BANNER	OFF	Unrel_Restudy_L4		136	Study	No	3	Unrel_Restudy_L4	ON		3000								
AQ4XLFW94PEAB	Collector	1	137	2016-05-26T11:51:05-07:00	28	1	Stimuli/versionEstim.txt	Procedure/versionEproc.txt	Tetris		VINE		VINE	OFF	Unrel_Restudy_L4		124	Study	No	3	Unrel_Restudy_L4	ON		3000								
AQ4XLFW94PEAB	Collector	1	138	2016-05-26T11:51:09-07:00	4	1	Stimuli/versionEstim.txt	Procedure/versionEproc.txt	Tetris		PARK		PARK	OFF	Unrel_Restudy_L4		128	Study	No	3	Unrel_Restudy_L4	ON		3000								
AQ4XLFW94PEAB	Collector	1	139	2016-05-26T11:51:13-07:00	4	1	Stimuli/versionEstim.txt	Procedure/versionEproc.txt	Tetris		BEEHIVE		BEEHIVE	OFF	Unrel_Restudy_L4		135	Study	No	3	Unrel_Restudy_L4	ON		3000								
AQ4XLFW94PEAB	Collector	1	140	2016-05-26T11:51:17-07:00	4	1	Stimuli/versionEstim.txt	Procedure/versionEproc.txt	Tetris		METAL		METAL	OFF	Unrel_Restudy_L4		130	Study	No	3	Unrel_Restudy_L4	ON		3000								
AQ4XLFW94PEAB	Collector	1	141	2016-05-26T11:51:21-07:00	4	1	Stimuli/versionEstim.txt	Procedure/versionEproc.txt	Tetris		BAGPIPE		BAGPIPE	OFF	Unrel_Restudy_L4		132	Study	No	3	Unrel_Restudy_L4	ON		3000								
AQ4XLFW94PEAB	Collector	1	142	2016-05-26T11:51:25-07:00	4	1	Stimuli/versionEstim.txt	Procedure/versionEproc.txt	Tetris		MAILBOX		MAILBOX	OFF	Unrel_Restudy_L4		140	Study	No	3	Unrel_Restudy_L4	ON		3000								
AQ4XLFW94PEAB	Collector	1	143	2016-05-26T11:51:29-07:00	4	1	Stimuli/versionEstim.txt	Procedure/versionEproc.txt	Tetris		NUN		NUN	OFF	Unrel_Restudy_L4		126	Study	No	3	Unrel_Restudy_L4	ON		3000								
AQ4XLFW94PEAB	Collector	1	144	2016-05-26T11:51:33-07:00	4	1	Stimuli/versionEstim.txt	Procedure/versionEproc.txt	Tetris		FALL		FALL	OFF	Unrel_Restudy_L4		141	Study	No	3	Unrel_Restudy_L4	ON		3000								
AQ4XLFW94PEAB	Collector	1	145	2016-05-26T11:51:37-07:00	4	1	Stimuli/versionEstim.txt	Procedure/versionEproc.txt	Tetris		FLAKE		FLAKE	OFF	Unrel_Restudy_L4		129	Study	No	3	Unrel_Restudy_L4	ON		3000								
AQ4XLFW94PEAB	Collector	1	146	2016-05-26T11:51:41-07:00	4	1	Stimuli/versionEstim.txt	Procedure/versionEproc.txt	Tetris		CEDAR		CEDAR	OFF	Unrel_Restudy_L4		134	Study	No	3	Unrel_Restudy_L4	ON		3000								
AQ4XLFW94PEAB	Collector	1	147	2016-05-26T11:51:44-07:00	3	1	Stimuli/versionEstim.txt	Procedure/versionEproc.txt	Tetris		ESTATE		ESTATE	OFF	Unrel_Restudy_L4		123	Study	No	3	Unrel_Restudy_L4	ON		3000								
AQ4XLFW94PEAB	Collector	1	148	2016-05-26T11:54:35-07:00	171	1	Stimuli/versionEstim.txt	Procedure/versionEproc.txt	Tetris		n/a	n/a	n/a	n/a	n/a	n/a	0	Instruct	N/A	User	Restudy Instructions: You will now view this list again, but in a different order. Click the button below to begin.	OFF		15310								
AQ4XLFW94PEAB	Collector	1	149	2016-05-26T11:54:55-07:00	20	1	Stimuli/versionEstim.txt	Procedure/versionEproc.txt	Tetris		METAL		METAL	OFF	Unrel_Restudy_L4		150	Study	No	3	Unrel_Restudy_L4	ON		3000								
AQ4XLFW94PEAB	Collector	1	150	2016-05-26T11:54:59-07:00	4	1	Stimuli/versionEstim.txt	Procedure/versionEproc.txt	Tetris		DUGOUT		DUGOUT	OFF	Unrel_Restudy_L4		145	Study	No	3	Unrel_Restudy_L4	ON		3000								
AQ4XLFW94PEAB	Collector	1	151	2016-05-26T11:55:03-07:00	4	1	Stimuli/versionEstim.txt	Procedure/versionEproc.txt	Tetris		FALL		FALL	OFF	Unrel_Restudy_L4		161	Study	No	3	Unrel_Restudy_L4	ON		3000								
AQ4XLFW94PEAB	Collector	1	152	2016-05-26T11:55:07-07:00	4	1	Stimuli/versionEstim.txt	Procedure/versionEproc.txt	Tetris		HATCHET		HATCHET	OFF	Unrel_Restudy_L4		158	Study	No	3	Unrel_Restudy_L4	ON		3000								
AQ4XLFW94PEAB	Collector	1	153	2016-05-26T11:55:11-07:00	4	1	Stimuli/versionEstim.txt	Procedure/versionEproc.txt	Tetris		COOKIE		COOKIE	OFF	Unrel_Restudy_L4		153	Study	No	3	Unrel_Restudy_L4	ON		3000								
AQ4XLFW94PEAB	Collector	1	154	2016-05-26T11:55:14-07:00	3	1	Stimuli/versionEstim.txt	Procedure/versionEproc.txt	Tetris		SEED		SEED	OFF	Unrel_Restudy_L4		159	Study	No	3	Unrel_Restudy_L4	ON		3000								
AQ4XLFW94PEAB	Collector	1	155	2016-05-26T11:55:18-07:00	4	1	Stimuli/versionEstim.txt	Procedure/versionEproc.txt	Tetris		MAILBOX		MAILBOX	OFF	Unrel_Restudy_L4		160	Study	No	3	Unrel_Restudy_L4	ON		3000								
AQ4XLFW94PEAB	Collector	1	156	2016-05-26T11:55:24-07:00	6	1	Stimuli/versionEstim.txt	Procedure/versionEproc.txt	Tetris		CEDAR		CEDAR	OFF	Unrel_Restudy_L4		154	Study	No	3	Unrel_Restudy_L4	ON		3000								
AQ4XLFW94PEAB	Collector	1	157	2016-05-26T11:55:27-07:00	3	1	Stimuli/versionEstim.txt	Procedure/versionEproc.txt	Tetris		NUN		NUN	OFF	Unrel_Restudy_L4		146	Study	No	3	Unrel_Restudy_L4	ON		3000								
AQ4XLFW94PEAB	Collector	1	158	2016-05-26T11:55:32-07:00	5	1	Stimuli/versionEstim.txt	Procedure/versionEproc.txt	Tetris		BAGPIPE		BAGPIPE	OFF	Unrel_Restudy_L4		152	Study	No	3	Unrel_Restudy_L4	ON		3000								
AQ4XLFW94PEAB	Collector	1	159	2016-05-26T11:55:36-07:00	4	1	Stimuli/versionEstim.txt	Procedure/versionEproc.txt	Tetris		GALLERY		GALLERY	OFF	Unrel_Restudy_L4		157	Study	No	3	Unrel_Restudy_L4	ON		3000								
AQ4XLFW94PEAB	Collector	1	160	2016-05-26T11:55:40-07:00	4	1	Stimuli/versionEstim.txt	Procedure/versionEproc.txt	Tetris		FLAKE		FLAKE	OFF	Unrel_Restudy_L4		149	Study	No	3	Unrel_Restudy_L4	ON		3000								
AQ4XLFW94PEAB	Collector	1	161	2016-05-26T11:55:44-07:00	4	1	Stimuli/versionEstim.txt	Procedure/versionEproc.txt	Tetris		TRICYCLE		TRICYCLE	OFF	Unrel_Restudy_L4		151	Study	No	3	Unrel_Restudy_L4	ON		3000								
AQ4XLFW94PEAB	Collector	1	162	2016-05-26T11:55:48-07:00	4	1	Stimuli/versionEstim.txt	Procedure/versionEproc.txt	Tetris		VINE		VINE	OFF	Unrel_Restudy_L4		144	Study	No	3	Unrel_Restudy_L4	ON		3000								
AQ4XLFW94PEAB	Collector	1	163	2016-05-26T11:55:52-07:00	4	1	Stimuli/versionEstim.txt	Procedure/versionEproc.txt	Tetris		FERRY		FERRY	OFF	Unrel_Restudy_L4		142	Study	No	3	Unrel_Restudy_L4	ON		3000								
AQ4XLFW94PEAB	Collector	1	164	2016-05-26T11:55:56-07:00	4	1	Stimuli/versionEstim.txt	Procedure/versionEproc.txt	Tetris		ESTATE		ESTATE	OFF	Unrel_Restudy_L4		143	Study	No	3	Unrel_Restudy_L4	ON		3000								
AQ4XLFW94PEAB	Collector	1	165	2016-05-26T11:55:59-07:00	3	1	Stimuli/versionEstim.txt	Procedure/versionEproc.txt	Tetris		BANNER		BANNER	OFF	Unrel_Restudy_L4		156	Study	No	3	Unrel_Restudy_L4	ON		3000								
AQ4XLFW94PEAB	Collector	1	166	2016-05-26T11:56:03-07:00	4	1	Stimuli/versionEstim.txt	Procedure/versionEproc.txt	Tetris		PARK		PARK	OFF	Unrel_Restudy_L4		148	Study	No	3	Unrel_Restudy_L4	ON		3000								
AQ4XLFW94PEAB	Collector	1	167	2016-05-26T11:56:12-07:00	9	1	Stimuli/versionEstim.txt	Procedure/versionEproc.txt	Tetris		STATION		STATION	OFF	Unrel_Restudy_L4		147	Study	No	3	Unrel_Restudy_L4	ON		3000								
AQ4XLFW94PEAB	Collector	1	168	2016-05-26T11:56:16-07:00	4	1	Stimuli/versionEstim.txt	Procedure/versionEproc.txt	Tetris		BEEHIVE		BEEHIVE	OFF	Unrel_Restudy_L4		155	Study	No	3	Unrel_Restudy_L4	ON		3000								
AQ4XLFW94PEAB	Collector	1	169	2016-05-26T11:56:20-07:00	4	1	Stimuli/versionEstim.txt	Procedure/versionEproc.txt	Tetris		n/a	n/a	n/a	n/a	n/a	n/a	0	Instruct	N/A	User	Click the button below for a new list.	OFF		1820								
AQ4XLFW94PEAB	Collector	1	170	2016-05-26T11:56:27-07:00	7	1	Stimuli/versionEstim.txt	Procedure/versionEproc.txt	Tetris		DOVE		DOVE	OFF	Cat_Restudy_L5		177	Study	No	3	Cat_Restudy_L5	ON		3000								
AQ4XLFW94PEAB	Collector	1	171	2016-05-26T11:56:31-07:00	4	1	Stimuli/versionEstim.txt	Procedure/versionEproc.txt	Tetris		EAGLE		EAGLE	OFF	Cat_Restudy_L5		163	Study	No	3	Cat_Restudy_L5	ON		3000								
AQ4XLFW94PEAB	Collector	1	172	2016-05-26T11:56:35-07:00	4	1	Stimuli/versionEstim.txt	Procedure/versionEproc.txt	Tetris		WREN		WREN	OFF	Cat_Restudy_L5		167	Study	No	3	Cat_Restudy_L5	ON		3000								
AQ4XLFW94PEAB	Collector	1	173	2016-05-26T11:56:40-07:00	5	1	Stimuli/versionEstim.txt	Procedure/versionEproc.txt	Tetris		STARLING		STARLING	OFF	Cat_Restudy_L5		172	Study	No	3	Cat_Restudy_L5	ON		3000								
AQ4XLFW94PEAB	Collector	1	174	2016-05-26T11:56:44-07:00	4	1	Stimuli/versionEstim.txt	Procedure/versionEproc.txt	Tetris		BLUEBIRD		BLUEBIRD	OFF	Cat_Restudy_L5		164	Study	No	3	Cat_Restudy_L5	ON		3000								
AQ4XLFW94PEAB	Collector	1	175	2016-05-26T11:56:48-07:00	4	1	Stimuli/versionEstim.txt	Procedure/versionEproc.txt	Tetris		FALCON		FALCON	OFF	Cat_Restudy_L5		181	Study	No	3	Cat_Restudy_L5	ON		3000								
AQ4XLFW94PEAB	Collector	1	176	2016-05-26T11:56:52-07:00	4	1	Stimuli/versionEstim.txt	Procedure/versionEproc.txt	Tetris		PIGEON		PIGEON	OFF	Cat_Restudy_L5		170	Study	No	3	Cat_Restudy_L5	ON		3000								
AQ4XLFW94PEAB	Collector	1	177	2016-05-26T11:56:56-07:00	4	1	Stimuli/versionEstim.txt	Procedure/versionEproc.txt	Tetris		BLACKBIRD		BLACKBIRD	OFF	Cat_Restudy_L5		166	Study	No	3	Cat_Restudy_L5	ON		3000								
AQ4XLFW94PEAB	Collector	1	178	2016-05-26T11:57:10-07:00	14	1	Stimuli/versionEstim.txt	Procedure/versionEproc.txt	Tetris		SEAGULL		SEAGULL	OFF	Cat_Restudy_L5		180	Study	No	3	Cat_Restudy_L5	ON		3000								
AQ4XLFW94PEAB	Collector	1	179	2016-05-26T11:57:14-07:00	4	1	Stimuli/versionEstim.txt	Procedure/versionEproc.txt	Tetris		PARAKEET		PARAKEET	OFF	Cat_Restudy_L5		165	Study	No	3	Cat_Restudy_L5	ON		3000								
AQ4XLFW94PEAB	Collector	1	180	2016-05-26T11:57:18-07:00	4	1	Stimuli/versionEstim.txt	Procedure/versionEproc.txt	Tetris		HUMMINGBIRD		HUMMINGBIRD	OFF	Cat_Restudy_L5		171	Study	No	3	Cat_Restudy_L5	ON		3000								
AQ4XLFW94PEAB	Collector	1	181	2016-05-26T11:57:21-07:00	3	1	Stimuli/versionEstim.txt	Procedure/versionEproc.txt	Tetris		ORIOLE		ORIOLE	OFF	Cat_Restudy_L5		168	Study	No	3	Cat_Restudy_L5	ON		3000								
AQ4XLFW94PEAB	Collector	1	182	2016-05-26T11:57:31-07:00	10	1	Stimuli/versionEstim.txt	Procedure/versionEproc.txt	Tetris		CHICKEN		CHICKEN	OFF	Cat_Restudy_L5		176	Study	No	3	Cat_Restudy_L5	ON		3000								
AQ4XLFW94PEAB	Collector	1	183	2016-05-26T11:57:35-07:00	4	1	Stimuli/versionEstim.txt	Procedure/versionEproc.txt	Tetris		OWL		OWL	OFF	Cat_Restudy_L5		179	Study	No	3	Cat_Restudy_L5	ON		3000								
AQ4XLFW94PEAB	Collector	1	184	2016-05-26T11:57:39-07:00	4	1	Stimuli/versionEstim.txt	Procedure/versionEproc.txt	Tetris		PARROT		PARROT	OFF	Cat_Restudy_L5		169	Study	No	3	Cat_Restudy_L5	ON		3000								
AQ4XLFW94PEAB	Collector	1	185	2016-05-26T11:57:43-07:00	4	1	Stimuli/versionEstim.txt	Procedure/versionEproc.txt	Tetris		WOODPECKER		WOODPECKER	OFF	Cat_Restudy_L5		173	Study	No	3	Cat_Restudy_L5	ON		3000								
AQ4XLFW94PEAB	Collector	1	186	2016-05-26T11:57:47-07:00	4	1	Stimuli/versionEstim.txt	Procedure/versionEproc.txt	Tetris		CARDINAL		CARDINAL	OFF	Cat_Restudy_L5		162	Study	No	3	Cat_Restudy_L5	ON		3000								
AQ4XLFW94PEAB	Collector	1	187	2016-05-26T11:57:51-07:00	4	1	Stimuli/versionEstim.txt	Procedure/versionEproc.txt	Tetris		VULTURE		VULTURE	OFF	Cat_Restudy_L5		174	Study	No	3	Cat_Restudy_L5	ON		3000								
AQ4XLFW94PEAB	Collector	1	188	2016-05-26T11:57:54-07:00	3	1	Stimuli/versionEstim.txt	Procedure/versionEproc.txt	Tetris		SWALLOW		SWALLOW	OFF	Cat_Restudy_L5		175	Study	No	3	Cat_Restudy_L5	ON		3000								
AQ4XLFW94PEAB	Collector	1	189	2016-05-26T11:57:58-07:00	4	1	Stimuli/versionEstim.txt	Procedure/versionEproc.txt	Tetris		DUCK		DUCK	OFF	Cat_Restudy_L5		178	Study	No	3	Cat_Restudy_L5	ON		3000								
AQ4XLFW94PEAB	Collector	1	190	2016-05-26T11:58:02-07:00	4	1	Stimuli/versionEstim.txt	Procedure/versionEproc.txt	Tetris		n/a	n/a	n/a	n/a	n/a	n/a	0	Instruct	N/A	User	Restudy Instructions: You will now view this list again, but in a different order. Click the button below to begin.	OFF		3250								
AQ4XLFW94PEAB	Collector	1	191	2016-05-26T11:58:08-07:00	6	1	Stimuli/versionEstim.txt	Procedure/versionEproc.txt	Tetris		STARLING		STARLING	OFF	Cat_Restudy_L5		192	Study	No	3	Cat_Restudy_L5	ON		3000								
AQ4XLFW94PEAB	Collector	1	192	2016-05-26T11:58:14-07:00	6	1	Stimuli/versionEstim.txt	Procedure/versionEproc.txt	Tetris		CARDINAL		CARDINAL	OFF	Cat_Restudy_L5		182	Study	No	3	Cat_Restudy_L5	ON		3000								
AQ4XLFW94PEAB	Collector	1	193	2016-05-26T11:58:17-07:00	3	1	Stimuli/versionEstim.txt	Procedure/versionEproc.txt	Tetris		FALCON		FALCON	OFF	Cat_Restudy_L5		201	Study	No	3	Cat_Restudy_L5	ON		3000								
AQ4XLFW94PEAB	Collector	1	194	2016-05-26T11:58:21-07:00	4	1	Stimuli/versionEstim.txt	Procedure/versionEproc.txt	Tetris		VULTURE		VULTURE	OFF	Cat_Restudy_L5		194	Study	No	3	Cat_Restudy_L5	ON		3000								
AQ4XLFW94PEAB	Collector	1	195	2016-05-26T11:58:25-07:00	4	1	Stimuli/versionEstim.txt	Procedure/versionEproc.txt	Tetris		PIGEON		PIGEON	OFF	Cat_Restudy_L5		190	Study	No	3	Cat_Restudy_L5	ON		3000								
AQ4XLFW94PEAB	Collector	1	196	2016-05-26T11:58:29-07:00	4	1	Stimuli/versionEstim.txt	Procedure/versionEproc.txt	Tetris		SEAGULL		SEAGULL	OFF	Cat_Restudy_L5		200	Study	No	3	Cat_Restudy_L5	ON		3000								
AQ4XLFW94PEAB	Collector	1	197	2016-05-26T11:58:42-07:00	13	1	Stimuli/versionEstim.txt	Procedure/versionEproc.txt	Tetris		ORIOLE		ORIOLE	OFF	Cat_Restudy_L5		188	Study	No	3	Cat_Restudy_L5	ON		3000								
AQ4XLFW94PEAB	Collector	1	198	2016-05-26T11:59:08-07:00	26	1	Stimuli/versionEstim.txt	Procedure/versionEproc.txt	Tetris		PARAKEET		PARAKEET	OFF	Cat_Restudy_L5		185	Study	No	3	Cat_Restudy_L5	ON		3000								
AQ4XLFW94PEAB	Collector	1	199	2016-05-26T11:59:12-07:00	4	1	Stimuli/versionEstim.txt	Procedure/versionEproc.txt	Tetris		DUCK		DUCK	OFF	Cat_Restudy_L5		198	Study	No	3	Cat_Restudy_L5	ON		3000								
AQ4XLFW94PEAB	Collector	1	200	2016-05-26T11:59:16-07:00	4	1	Stimuli/versionEstim.txt	Procedure/versionEproc.txt	Tetris		EAGLE		EAGLE	OFF	Cat_Restudy_L5		183	Study	No	3	Cat_Restudy_L5	ON		3000								
AQ4XLFW94PEAB	Collector	1	201	2016-05-26T11:59:19-07:00	3	1	Stimuli/versionEstim.txt	Procedure/versionEproc.txt	Tetris		CHICKEN		CHICKEN	OFF	Cat_Restudy_L5		196	Study	No	3	Cat_Restudy_L5	ON		3000								
AQ4XLFW94PEAB	Collector	1	202	2016-05-26T11:59:23-07:00	4	1	Stimuli/versionEstim.txt	Procedure/versionEproc.txt	Tetris		BLUEBIRD		BLUEBIRD	OFF	Cat_Restudy_L5		184	Study	No	3	Cat_Restudy_L5	ON		3000								
AQ4XLFW94PEAB	Collector	1	203	2016-05-26T11:59:28-07:00	5	1	Stimuli/versionEstim.txt	Procedure/versionEproc.txt	Tetris		BLACKBIRD		BLACKBIRD	OFF	Cat_Restudy_L5		186	Study	No	3	Cat_Restudy_L5	ON		3000								
AQ4XLFW94PEAB	Collector	1	204	2016-05-26T11:59:37-07:00	9	1	Stimuli/versionEstim.txt	Procedure/versionEproc.txt	Tetris		PARROT		PARROT	OFF	Cat_Restudy_L5		189	Study	No	3	Cat_Restudy_L5	ON		3000								
AQ4XLFW94PEAB	Collector	1	205	2016-05-26T11:59:41-07:00	4	1	Stimuli/versionEstim.txt	Procedure/versionEproc.txt	Tetris		OWL		OWL	OFF	Cat_Restudy_L5		199	Study	No	3	Cat_Restudy_L5	ON		3000								
AQ4XLFW94PEAB	Collector	1	206	2016-05-26T11:59:44-07:00	3	1	Stimuli/versionEstim.txt	Procedure/versionEproc.txt	Tetris		WREN		WREN	OFF	Cat_Restudy_L5		187	Study	No	3	Cat_Restudy_L5	ON		3000								
AQ4XLFW94PEAB	Collector	1	207	2016-05-26T11:59:48-07:00	4	1	Stimuli/versionEstim.txt	Procedure/versionEproc.txt	Tetris		WOODPECKER		WOODPECKER	OFF	Cat_Restudy_L5		193	Study	No	3	Cat_Restudy_L5	ON		3000								
AQ4XLFW94PEAB	Collector	1	208	2016-05-26T11:59:52-07:00	4	1	Stimuli/versionEstim.txt	Procedure/versionEproc.txt	Tetris		SWALLOW		SWALLOW	OFF	Cat_Restudy_L5		195	Study	No	3	Cat_Restudy_L5	ON		3000								
AQ4XLFW94PEAB	Collector	1	209	2016-05-26T11:59:56-07:00	4	1	Stimuli/versionEstim.txt	Procedure/versionEproc.txt	Tetris		DOVE		DOVE	OFF	Cat_Restudy_L5		197	Study	No	3	Cat_Restudy_L5	ON		3000								
AQ4XLFW94PEAB	Collector	1	210	2016-05-26T12:00:00-07:00	4	1	Stimuli/versionEstim.txt	Procedure/versionEproc.txt	Tetris		HUMMINGBIRD		HUMMINGBIRD	OFF	Cat_Restudy_L5		191	Study	No	3	Cat_Restudy_L5	ON		3000								
AQ4XLFW94PEAB	Collector	1	211	2016-05-26T12:00:03-07:00	3	1	Stimuli/versionEstim.txt	Procedure/versionEproc.txt	Tetris		n/a	n/a	n/a	n/a	n/a	n/a	0	Instruct	N/A	User	Click the button below for a new list.	OFF		2300								
