"X.Username","X.ExperimentName","X.Session","X.Trial","X.Date","X.TimeDif","X.Condition.Number","X.Stimuli.File","X.Order.File","X.Condition.Description","X.Condition.Notes","Stimuli.Target","Stimuli.Cue","Stimuli.Answer","Stimuli.Shuffle","Stimuli.Stimuli.Notes","Procedure.Item","Procedure.Trial.Type","Procedure.Post.Trial","Procedure.Timing","Procedure.Procedure.Notes","Procedure.Shuffle","Response.Response1","Response.RT","Response.RTkey","Response.RTlast","Response.strictAcc","Response.lenientAcc","Response.Accuracy","Response.JOL","Response.postRT","Response.postRTkey"
"A3SKEW89V5S0DI","Collector",1,1,"2016-03-07T16:58:12-08:00","-",1,"Stimuli/versionDstim.txt","Procedure/versionDproc.txt","Tetris",NA,"n/a","n/a","n/a","n/a","n/a",0,"Instruct","N/A","User","Click the button below for the first list.","Off","",1340,NA,NA,NA,NA,NA,NA,NA,NA
"A3SKEW89V5S0DI","Collector",1,2,"2016-03-07T16:58:16-08:00","4",1,"Stimuli/versionDstim.txt","Procedure/versionDproc.txt","Tetris",NA,"WINCH","","WINCH","OFF","Unrel_Recall_L1",9,"Study","No","3","Unrel_Recall_L1","ON","",3000,NA,NA,NA,NA,NA,NA,NA,NA
"A3SKEW89V5S0DI","Collector",1,3,"2016-03-07T16:58:20-08:00","4",1,"Stimuli/versionDstim.txt","Procedure/versionDproc.txt","Tetris",NA,"FOSSIL","","FOSSIL","OFF","Unrel_Recall_L1",14,"Study","No","3","Unrel_Recall_L1","ON","",3000,NA,NA,NA,NA,NA,NA,NA,NA
"A3SKEW89V5S0DI","Collector",1,4,"2016-03-07T16:58:24-08:00","4",1,"Stimuli/versionDstim.txt","Procedure/versionDproc.txt","Tetris",NA,"WRAP","","WRAP","OFF","Unrel_Recall_L1",2,"Study","No","3","Unrel_Recall_L1","ON","",3000,NA,NA,NA,NA,NA,NA,NA,NA
"A3SKEW89V5S0DI","Collector",1,5,"2016-03-07T16:58:30-08:00","6",1,"Stimuli/versionDstim.txt","Procedure/versionDproc.txt","Tetris",NA,"CELLOPHANE","","CELLOPHANE","OFF","Unrel_Recall_L1",8,"Study","No","3","Unrel_Recall_L1","ON","",3000,NA,NA,NA,NA,NA,NA,NA,NA
"A3SKEW89V5S0DI","Collector",1,6,"2016-03-07T16:58:34-08:00","4",1,"Stimuli/versionDstim.txt","Procedure/versionDproc.txt","Tetris",NA,"KISS","","KISS","OFF","Unrel_Recall_L1",12,"Study","No","3","Unrel_Recall_L1","ON","",3000,NA,NA,NA,NA,NA,NA,NA,NA
"A3SKEW89V5S0DI","Collector",1,7,"2016-03-07T16:58:38-08:00","4",1,"Stimuli/versionDstim.txt","Procedure/versionDproc.txt","Tetris",NA,"MARSH","","MARSH","OFF","Unrel_Recall_L1",4,"Study","No","3","Unrel_Recall_L1","ON","",3000,NA,NA,NA,NA,NA,NA,NA,NA
"A3SKEW89V5S0DI","Collector",1,8,"2016-03-07T16:58:42-08:00","4",1,"Stimuli/versionDstim.txt","Procedure/versionDproc.txt","Tetris",NA,"FLURRY","","FLURRY","OFF","Unrel_Recall_L1",7,"Study","No","3","Unrel_Recall_L1","ON","",3000,NA,NA,NA,NA,NA,NA,NA,NA
"A3SKEW89V5S0DI","Collector",1,9,"2016-03-07T16:58:47-08:00","5",1,"Stimuli/versionDstim.txt","Procedure/versionDproc.txt","Tetris",NA,"BLAZE","","BLAZE","OFF","Unrel_Recall_L1",19,"Study","No","3","Unrel_Recall_L1","ON","",3000,NA,NA,NA,NA,NA,NA,NA,NA
"A3SKEW89V5S0DI","Collector",1,10,"2016-03-07T16:58:58-08:00","11",1,"Stimuli/versionDstim.txt","Procedure/versionDproc.txt","Tetris",NA,"AVENUE","","AVENUE","OFF","Unrel_Recall_L1",5,"Study","No","3","Unrel_Recall_L1","ON","",3000,NA,NA,NA,NA,NA,NA,NA,NA
"A3SKEW89V5S0DI","Collector",1,11,"2016-03-07T16:59:25-08:00","27",1,"Stimuli/versionDstim.txt","Procedure/versionDproc.txt","Tetris",NA,"DWARF","","DWARF","OFF","Unrel_Recall_L1",17,"Study","No","3","Unrel_Recall_L1","ON","",3000,NA,NA,NA,NA,NA,NA,NA,NA
"A3SKEW89V5S0DI","Collector",1,12,"2016-03-07T16:59:29-08:00","4",1,"Stimuli/versionDstim.txt","Procedure/versionDproc.txt","Tetris",NA,"CANYON","","CANYON","OFF","Unrel_Recall_L1",13,"Study","No","3","Unrel_Recall_L1","ON","",3000,NA,NA,NA,NA,NA,NA,NA,NA
"A3SKEW89V5S0DI","Collector",1,13,"2016-03-07T16:59:35-08:00","6",1,"Stimuli/versionDstim.txt","Procedure/versionDproc.txt","Tetris",NA,"GIN","","GIN","OFF","Unrel_Recall_L1",18,"Study","No","3","Unrel_Recall_L1","ON","",3000,NA,NA,NA,NA,NA,NA,NA,NA
"A3SKEW89V5S0DI","Collector",1,14,"2016-03-07T16:59:39-08:00","4",1,"Stimuli/versionDstim.txt","Procedure/versionDproc.txt","Tetris",NA,"JAR","","JAR","OFF","Unrel_Recall_L1",11,"Study","No","3","Unrel_Recall_L1","ON","",3000,NA,NA,NA,NA,NA,NA,NA,NA
"A3SKEW89V5S0DI","Collector",1,15,"2016-03-07T16:59:43-08:00","4",1,"Stimuli/versionDstim.txt","Procedure/versionDproc.txt","Tetris",NA,"DETOUR","","DETOUR","OFF","Unrel_Recall_L1",3,"Study","No","3","Unrel_Recall_L1","ON","",3000,NA,NA,NA,NA,NA,NA,NA,NA
"A3SKEW89V5S0DI","Collector",1,16,"2016-03-07T16:59:48-08:00","5",1,"Stimuli/versionDstim.txt","Procedure/versionDproc.txt","Tetris",NA,"LANCE","","LANCE","OFF","Unrel_Recall_L1",16,"Study","No","3","Unrel_Recall_L1","ON","",3000,NA,NA,NA,NA,NA,NA,NA,NA
"A3SKEW89V5S0DI","Collector",1,17,"2016-03-07T16:59:52-08:00","4",1,"Stimuli/versionDstim.txt","Procedure/versionDproc.txt","Tetris",NA,"WINNER","","WINNER","OFF","Unrel_Recall_L1",21,"Study","No","3","Unrel_Recall_L1","ON","",3000,NA,NA,NA,NA,NA,NA,NA,NA
"A3SKEW89V5S0DI","Collector",1,18,"2016-03-07T16:59:56-08:00","4",1,"Stimuli/versionDstim.txt","Procedure/versionDproc.txt","Tetris",NA,"CEREAL","","CEREAL","OFF","Unrel_Recall_L1",15,"Study","No","3","Unrel_Recall_L1","ON","",3000,NA,NA,NA,NA,NA,NA,NA,NA
"A3SKEW89V5S0DI","Collector",1,19,"2016-03-07T17:00:00-08:00","4",1,"Stimuli/versionDstim.txt","Procedure/versionDproc.txt","Tetris",NA,"GONG","","GONG","OFF","Unrel_Recall_L1",10,"Study","No","3","Unrel_Recall_L1","ON","",3000,NA,NA,NA,NA,NA,NA,NA,NA
"A3SKEW89V5S0DI","Collector",1,20,"2016-03-07T17:00:06-08:00","6",1,"Stimuli/versionDstim.txt","Procedure/versionDproc.txt","Tetris",NA,"JOKE","","JOKE","OFF","Unrel_Recall_L1",6,"Study","No","3","Unrel_Recall_L1","ON","",3000,NA,NA,NA,NA,NA,NA,NA,NA
"A3SKEW89V5S0DI","Collector",1,21,"2016-03-07T17:00:10-08:00","4",1,"Stimuli/versionDstim.txt","Procedure/versionDproc.txt","Tetris",NA,"WORKSHOP","","WORKSHOP","OFF","Unrel_Recall_L1",20,"Study","No","3","Unrel_Recall_L1","ON","",3000,NA,NA,NA,NA,NA,NA,NA,NA
"A3SKEW89V5S0DI","Collector",1,22,"2016-03-07T17:00:15-08:00","5",1,"Stimuli/versionDstim.txt","Procedure/versionDproc.txt","Tetris",NA,"n/a","n/a","n/a","n/a","n/a",0,"Instruct","N/A","User","Recall Instructions: Recall the words that you saw from memory by typing them into the dialog box on the next screen. You will have 1 minute. Click the button below to begin.","OFF","",3920,NA,NA,NA,NA,NA,NA,NA,NA
"A3SKEW89V5S0DI","Collector",1,23,"2016-03-07T17:01:17-08:00","62",1,"Stimuli/versionDstim.txt","Procedure/versionDproc.txt","Tetris",NA,"n/a","n/a","n/a","n/a","n/a",0,"freerecall","N/A","60","Recall now in the box. Spelling will not be counted against you. The computer will advance when your minute is up.","OFF","winch <br />  <br /> fossil <br />  <br /> wrap <br />  <br /> gong <br />  <br /> ",60000,1400,23280,NA,NA,NA,NA,NA,NA
"A3SKEW89V5S0DI","Collector",1,24,"2016-03-07T17:01:21-08:00","4",1,"Stimuli/versionDstim.txt","Procedure/versionDproc.txt","Tetris",NA,"n/a","n/a","n/a","n/a","n/a",0,"Instruct","N/A","User","Click the button below for the next list.","OFF","",2370,NA,NA,NA,NA,NA,NA,NA,NA
"A3SKEW89V5S0DI","Collector",1,25,"2016-03-07T17:01:26-08:00","5",1,"Stimuli/versionDstim.txt","Procedure/versionDproc.txt","Tetris",NA,"PLUNGER","","PLUNGER","OFF","AdHoc_Recall_L2",35,"Study","No","3","AdHoc_Recall_L2","ON","",3000,NA,NA,NA,NA,NA,NA,NA,NA
"A3SKEW89V5S0DI","Collector",1,26,"2016-03-07T17:01:32-08:00","6",1,"Stimuli/versionDstim.txt","Procedure/versionDproc.txt","Tetris",NA,"TILE","","TILE","OFF","AdHoc_Recall_L2",25,"Study","No","3","AdHoc_Recall_L2","ON","",3000,NA,NA,NA,NA,NA,NA,NA,NA
"A3SKEW89V5S0DI","Collector",1,27,"2016-03-07T17:01:41-08:00","9",1,"Stimuli/versionDstim.txt","Procedure/versionDproc.txt","Tetris",NA,"SHAMPOO","","SHAMPOO","OFF","AdHoc_Recall_L2",34,"Study","No","3","AdHoc_Recall_L2","ON","",3000,NA,NA,NA,NA,NA,NA,NA,NA
"A3SKEW89V5S0DI","Collector",1,28,"2016-03-07T17:01:46-08:00","5",1,"Stimuli/versionDstim.txt","Procedure/versionDproc.txt","Tetris",NA,"SCALE","","SCALE","OFF","AdHoc_Recall_L2",23,"Study","No","3","AdHoc_Recall_L2","ON","",3000,NA,NA,NA,NA,NA,NA,NA,NA
"A3SKEW89V5S0DI","Collector",1,29,"2016-03-07T17:01:50-08:00","4",1,"Stimuli/versionDstim.txt","Procedure/versionDproc.txt","Tetris",NA,"MAT","","MAT","OFF","AdHoc_Recall_L2",24,"Study","No","3","AdHoc_Recall_L2","ON","",3000,NA,NA,NA,NA,NA,NA,NA,NA
"A3SKEW89V5S0DI","Collector",1,30,"2016-03-07T17:01:54-08:00","4",1,"Stimuli/versionDstim.txt","Procedure/versionDproc.txt","Tetris",NA,"CANDLE","","CANDLE","OFF","AdHoc_Recall_L2",41,"Study","No","3","AdHoc_Recall_L2","ON","",3000,NA,NA,NA,NA,NA,NA,NA,NA
"A3SKEW89V5S0DI","Collector",1,31,"2016-03-07T17:01:59-08:00","5",1,"Stimuli/versionDstim.txt","Procedure/versionDproc.txt","Tetris",NA,"SOAP","","SOAP","OFF","AdHoc_Recall_L2",22,"Study","No","3","AdHoc_Recall_L2","ON","",3000,NA,NA,NA,NA,NA,NA,NA,NA
"A3SKEW89V5S0DI","Collector",1,32,"2016-03-07T17:02:03-08:00","4",1,"Stimuli/versionDstim.txt","Procedure/versionDproc.txt","Tetris",NA,"SHAVER","","SHAVER","OFF","AdHoc_Recall_L2",33,"Study","No","3","AdHoc_Recall_L2","ON","",3000,NA,NA,NA,NA,NA,NA,NA,NA
"A3SKEW89V5S0DI","Collector",1,33,"2016-03-07T17:02:11-08:00","8",1,"Stimuli/versionDstim.txt","Procedure/versionDproc.txt","Tetris",NA,"MEDICINE","","MEDICINE","OFF","AdHoc_Recall_L2",27,"Study","No","3","AdHoc_Recall_L2","ON","",3000,NA,NA,NA,NA,NA,NA,NA,NA
"A3SKEW89V5S0DI","Collector",1,34,"2016-03-07T17:02:15-08:00","4",1,"Stimuli/versionDstim.txt","Procedure/versionDproc.txt","Tetris",NA,"BRUSH","","BRUSH","OFF","AdHoc_Recall_L2",29,"Study","No","3","AdHoc_Recall_L2","ON","",3000,NA,NA,NA,NA,NA,NA,NA,NA
"A3SKEW89V5S0DI","Collector",1,35,"2016-03-07T17:02:19-08:00","4",1,"Stimuli/versionDstim.txt","Procedure/versionDproc.txt","Tetris",NA,"MOUTHWASH","","MOUTHWASH","OFF","AdHoc_Recall_L2",36,"Study","No","3","AdHoc_Recall_L2","ON","",3000,NA,NA,NA,NA,NA,NA,NA,NA
"A3SKEW89V5S0DI","Collector",1,36,"2016-03-07T17:02:23-08:00","4",1,"Stimuli/versionDstim.txt","Procedure/versionDproc.txt","Tetris",NA,"HAIR DRYER","","HAIR DRYER","OFF","AdHoc_Recall_L2",39,"Study","No","3","AdHoc_Recall_L2","ON","",3000,NA,NA,NA,NA,NA,NA,NA,NA
"A3SKEW89V5S0DI","Collector",1,37,"2016-03-07T17:02:27-08:00","4",1,"Stimuli/versionDstim.txt","Procedure/versionDproc.txt","Tetris",NA,"DEODORANT","","DEODORANT","OFF","AdHoc_Recall_L2",31,"Study","No","3","AdHoc_Recall_L2","ON","",3000,NA,NA,NA,NA,NA,NA,NA,NA
"A3SKEW89V5S0DI","Collector",1,38,"2016-03-07T17:02:31-08:00","4",1,"Stimuli/versionDstim.txt","Procedure/versionDproc.txt","Tetris",NA,"LOOFAH","","LOOFAH","OFF","AdHoc_Recall_L2",40,"Study","No","3","AdHoc_Recall_L2","ON","",3000,NA,NA,NA,NA,NA,NA,NA,NA
"A3SKEW89V5S0DI","Collector",1,39,"2016-03-07T17:02:36-08:00","5",1,"Stimuli/versionDstim.txt","Procedure/versionDproc.txt","Tetris",NA,"LOTION","","LOTION","OFF","AdHoc_Recall_L2",30,"Study","No","3","AdHoc_Recall_L2","ON","",3000,NA,NA,NA,NA,NA,NA,NA,NA
"A3SKEW89V5S0DI","Collector",1,40,"2016-03-07T17:02:40-08:00","4",1,"Stimuli/versionDstim.txt","Procedure/versionDproc.txt","Tetris",NA,"VANITY","","VANITY","OFF","AdHoc_Recall_L2",37,"Study","No","3","AdHoc_Recall_L2","ON","",3000,NA,NA,NA,NA,NA,NA,NA,NA
"A3SKEW89V5S0DI","Collector",1,41,"2016-03-07T17:02:44-08:00","4",1,"Stimuli/versionDstim.txt","Procedure/versionDproc.txt","Tetris",NA,"CURLING IRON","","CURLING IRON","OFF","AdHoc_Recall_L2",32,"Study","No","3","AdHoc_Recall_L2","ON","",3000,NA,NA,NA,NA,NA,NA,NA,NA
"A3SKEW89V5S0DI","Collector",1,42,"2016-03-07T17:02:48-08:00","4",1,"Stimuli/versionDstim.txt","Procedure/versionDproc.txt","Tetris",NA,"TWEEZERS","","TWEEZERS","OFF","AdHoc_Recall_L2",38,"Study","No","3","AdHoc_Recall_L2","ON","",3000,NA,NA,NA,NA,NA,NA,NA,NA
"A3SKEW89V5S0DI","Collector",1,43,"2016-03-07T17:02:52-08:00","4",1,"Stimuli/versionDstim.txt","Procedure/versionDproc.txt","Tetris",NA,"FAUCET","","FAUCET","OFF","AdHoc_Recall_L2",26,"Study","No","3","AdHoc_Recall_L2","ON","",3000,NA,NA,NA,NA,NA,NA,NA,NA
"A3SKEW89V5S0DI","Collector",1,44,"2016-03-07T17:02:56-08:00","4",1,"Stimuli/versionDstim.txt","Procedure/versionDproc.txt","Tetris",NA,"COMB","","COMB","OFF","AdHoc_Recall_L2",28,"Study","No","3","AdHoc_Recall_L2","ON","",3000,NA,NA,NA,NA,NA,NA,NA,NA
"A3SKEW89V5S0DI","Collector",1,45,"2016-03-07T17:03:00-08:00","4",1,"Stimuli/versionDstim.txt","Procedure/versionDproc.txt","Tetris",NA,"n/a","n/a","n/a","n/a","n/a",0,"Instruct","N/A","User","Recall Instructions: Recall the words that you saw from memory by typing them into the dialog box on the next screen. You will have 1 minute. Click the button below to begin.","OFF","",2820,NA,NA,NA,NA,NA,NA,NA,NA
"A3SKEW89V5S0DI","Collector",1,46,"2016-03-07T17:04:02-08:00","62",1,"Stimuli/versionDstim.txt","Procedure/versionDproc.txt","Tetris",NA,"n/a","n/a","n/a","n/a","n/a",0,"freerecall","N/A","60","Recall now in the box. Spelling will not be counted against you. The computer will advance when your minute is up.","OFF","loofah <br />  <br /> lotion <br />  <br /> tile <br />  <br /> vanity <br />  <br /> curling iron <br />  <br /> ",60000,990,17610,NA,NA,NA,NA,NA,NA
"A3SKEW89V5S0DI","Collector",1,47,"2016-03-07T17:04:06-08:00","4",1,"Stimuli/versionDstim.txt","Procedure/versionDproc.txt","Tetris",NA,"n/a","n/a","n/a","n/a","n/a",0,"Instruct","N/A","User","Click the button below for the next list.","OFF","",3040,NA,NA,NA,NA,NA,NA,NA,NA
"A3SKEW89V5S0DI","Collector",1,48,"2016-03-07T17:04:10-08:00","4",1,"Stimuli/versionDstim.txt","Procedure/versionDproc.txt","Tetris",NA,"DETECTIVE","","DETECTIVE","OFF","AdHoc_Recall_L3",61,"Study","No","3","AdHoc_Recall_L3","ON","",3000,NA,NA,NA,NA,NA,NA,NA,NA
"A3SKEW89V5S0DI","Collector",1,49,"2016-03-07T17:04:15-08:00","5",1,"Stimuli/versionDstim.txt","Procedure/versionDproc.txt","Tetris",NA,"CHAIN","","CHAIN","OFF","AdHoc_Recall_L3",53,"Study","No","3","AdHoc_Recall_L3","ON","",3000,NA,NA,NA,NA,NA,NA,NA,NA
"A3SKEW89V5S0DI","Collector",1,50,"2016-03-07T17:04:19-08:00","4",1,"Stimuli/versionDstim.txt","Procedure/versionDproc.txt","Tetris",NA,"CAFETERIA","","CAFETERIA","OFF","AdHoc_Recall_L3",48,"Study","No","3","AdHoc_Recall_L3","ON","",3000,NA,NA,NA,NA,NA,NA,NA,NA
"A3SKEW89V5S0DI","Collector",1,51,"2016-03-07T17:04:23-08:00","4",1,"Stimuli/versionDstim.txt","Procedure/versionDproc.txt","Tetris",NA,"GUARD","","GUARD","OFF","AdHoc_Recall_L3",49,"Study","No","3","AdHoc_Recall_L3","ON","",3000,NA,NA,NA,NA,NA,NA,NA,NA
"A3SKEW89V5S0DI","Collector",1,52,"2016-03-07T17:04:27-08:00","4",1,"Stimuli/versionDstim.txt","Procedure/versionDproc.txt","Tetris",NA,"FIGHTS","","FIGHTS","OFF","AdHoc_Recall_L3",55,"Study","No","3","AdHoc_Recall_L3","ON","",3000,NA,NA,NA,NA,NA,NA,NA,NA
"A3SKEW89V5S0DI","Collector",1,53,"2016-03-07T17:04:31-08:00","4",1,"Stimuli/versionDstim.txt","Procedure/versionDproc.txt","Tetris",NA,"SHACKLE","","SHACKLE","OFF","AdHoc_Recall_L3",54,"Study","No","3","AdHoc_Recall_L3","ON","",3000,NA,NA,NA,NA,NA,NA,NA,NA
"A3SKEW89V5S0DI","Collector",1,54,"2016-03-07T17:04:35-08:00","4",1,"Stimuli/versionDstim.txt","Procedure/versionDproc.txt","Tetris",NA,"NEEDLE","","NEEDLE","OFF","AdHoc_Recall_L3",59,"Study","No","3","AdHoc_Recall_L3","ON","",3000,NA,NA,NA,NA,NA,NA,NA,NA
"A3SKEW89V5S0DI","Collector",1,55,"2016-03-07T17:04:40-08:00","5",1,"Stimuli/versionDstim.txt","Procedure/versionDproc.txt","Tetris",NA,"CHAINLINK","","CHAINLINK","OFF","AdHoc_Recall_L3",50,"Study","No","3","AdHoc_Recall_L3","ON","",3000,NA,NA,NA,NA,NA,NA,NA,NA
"A3SKEW89V5S0DI","Collector",1,56,"2016-03-07T17:04:46-08:00","6",1,"Stimuli/versionDstim.txt","Procedure/versionDproc.txt","Tetris",NA,"OFFICER","","OFFICER","OFF","AdHoc_Recall_L3",57,"Study","No","3","AdHoc_Recall_L3","ON","",3000,NA,NA,NA,NA,NA,NA,NA,NA
"A3SKEW89V5S0DI","Collector",1,57,"2016-03-07T17:04:50-08:00","4",1,"Stimuli/versionDstim.txt","Procedure/versionDproc.txt","Tetris",NA,"BARS","","BARS","OFF","AdHoc_Recall_L3",44,"Study","No","3","AdHoc_Recall_L3","ON","",3000,NA,NA,NA,NA,NA,NA,NA,NA
"A3SKEW89V5S0DI","Collector",1,58,"2016-03-07T17:04:54-08:00","4",1,"Stimuli/versionDstim.txt","Procedure/versionDproc.txt","Tetris",NA,"ALARM","","ALARM","OFF","AdHoc_Recall_L3",52,"Study","No","3","AdHoc_Recall_L3","ON","",3000,NA,NA,NA,NA,NA,NA,NA,NA
"A3SKEW89V5S0DI","Collector",1,59,"2016-03-07T17:04:58-08:00","4",1,"Stimuli/versionDstim.txt","Procedure/versionDproc.txt","Tetris",NA,"BUNKBED","","BUNKBED","OFF","AdHoc_Recall_L3",47,"Study","No","3","AdHoc_Recall_L3","ON","",3000,NA,NA,NA,NA,NA,NA,NA,NA
"A3SKEW89V5S0DI","Collector",1,60,"2016-03-07T17:05:02-08:00","4",1,"Stimuli/versionDstim.txt","Procedure/versionDproc.txt","Tetris",NA,"PISTOL","","PISTOL","OFF","AdHoc_Recall_L3",42,"Study","No","3","AdHoc_Recall_L3","ON","",3000,NA,NA,NA,NA,NA,NA,NA,NA
"A3SKEW89V5S0DI","Collector",1,61,"2016-03-07T17:05:07-08:00","5",1,"Stimuli/versionDstim.txt","Procedure/versionDproc.txt","Tetris",NA,"WEIGHTS","","WEIGHTS","OFF","AdHoc_Recall_L3",46,"Study","No","3","AdHoc_Recall_L3","ON","",3000,NA,NA,NA,NA,NA,NA,NA,NA
"A3SKEW89V5S0DI","Collector",1,62,"2016-03-07T17:05:11-08:00","4",1,"Stimuli/versionDstim.txt","Procedure/versionDproc.txt","Tetris",NA,"CIGARETTE","","CIGARETTE","OFF","AdHoc_Recall_L3",60,"Study","No","3","AdHoc_Recall_L3","ON","",3000,NA,NA,NA,NA,NA,NA,NA,NA
"A3SKEW89V5S0DI","Collector",1,63,"2016-03-07T17:05:15-08:00","4",1,"Stimuli/versionDstim.txt","Procedure/versionDproc.txt","Tetris",NA,"TATTOO","","TATTOO","OFF","AdHoc_Recall_L3",58,"Study","No","3","AdHoc_Recall_L3","ON","",3000,NA,NA,NA,NA,NA,NA,NA,NA
"A3SKEW89V5S0DI","Collector",1,64,"2016-03-07T17:05:20-08:00","5",1,"Stimuli/versionDstim.txt","Procedure/versionDproc.txt","Tetris",NA,"TOWER","","TOWER","OFF","AdHoc_Recall_L3",51,"Study","No","3","AdHoc_Recall_L3","ON","",3000,NA,NA,NA,NA,NA,NA,NA,NA
"A3SKEW89V5S0DI","Collector",1,65,"2016-03-07T17:05:24-08:00","4",1,"Stimuli/versionDstim.txt","Procedure/versionDproc.txt","Tetris",NA,"INMATE","","INMATE","OFF","AdHoc_Recall_L3",56,"Study","No","3","AdHoc_Recall_L3","ON","",3000,NA,NA,NA,NA,NA,NA,NA,NA
"A3SKEW89V5S0DI","Collector",1,66,"2016-03-07T17:05:28-08:00","4",1,"Stimuli/versionDstim.txt","Procedure/versionDproc.txt","Tetris",NA,"FINGERPRINTS","","FINGERPRINTS","OFF","AdHoc_Recall_L3",45,"Study","No","3","AdHoc_Recall_L3","ON","",3000,NA,NA,NA,NA,NA,NA,NA,NA
"A3SKEW89V5S0DI","Collector",1,67,"2016-03-07T17:05:32-08:00","4",1,"Stimuli/versionDstim.txt","Procedure/versionDproc.txt","Tetris",NA,"CELL","","CELL","OFF","AdHoc_Recall_L3",43,"Study","No","3","AdHoc_Recall_L3","ON","",3000,NA,NA,NA,NA,NA,NA,NA,NA
"A3SKEW89V5S0DI","Collector",1,68,"2016-03-07T17:05:36-08:00","4",1,"Stimuli/versionDstim.txt","Procedure/versionDproc.txt","Tetris",NA,"n/a","n/a","n/a","n/a","n/a",0,"Instruct","N/A","User","Recall Instructions: Recall the words that you saw from memory by typing them into the dialog box on the next screen. You will have 1 minute. Click the button below to begin.","OFF","",2460,NA,NA,NA,NA,NA,NA,NA,NA
"A3SKEW89V5S0DI","Collector",1,69,"2016-03-07T17:07:05-08:00","89",1,"Stimuli/versionDstim.txt","Procedure/versionDproc.txt","Tetris",NA,"n/a","n/a","n/a","n/a","n/a",0,"freerecall","N/A","60","Recall now in the box. Spelling will not be counted against you. The computer will advance when your minute is up.","OFF","fingerprints <br />  <br /> detective <br />  <br /> inmate <br />  <br /> cell <br />  <br /> chainlink <br />  <br /> bars <br />  <br /> ",60000,1020,25870,NA,NA,NA,NA,NA,NA
"A3SKEW89V5S0DI","Collector",1,70,"2016-03-07T17:07:09-08:00","4",1,"Stimuli/versionDstim.txt","Procedure/versionDproc.txt","Tetris",NA,"n/a","n/a","n/a","n/a","n/a",0,"Instruct","N/A","User","Click the button below for the next list.","OFF","",1670,NA,NA,NA,NA,NA,NA,NA,NA
"A3SKEW89V5S0DI","Collector",1,71,"2016-03-07T17:07:13-08:00","4",1,"Stimuli/versionDstim.txt","Procedure/versionDproc.txt","Tetris",NA,"DUPLEX","","DUPLEX","OFF","Cat_Recall_L4",77,"Study","No","3","Cat_Recall_L4","ON","",3000,NA,NA,NA,NA,NA,NA,NA,NA
"A3SKEW89V5S0DI","Collector",1,72,"2016-03-07T17:07:17-08:00","4",1,"Stimuli/versionDstim.txt","Procedure/versionDproc.txt","Tetris",NA,"ROOM","","ROOM","OFF","Cat_Recall_L4",75,"Study","No","3","Cat_Recall_L4","ON","",3000,NA,NA,NA,NA,NA,NA,NA,NA
"A3SKEW89V5S0DI","Collector",1,73,"2016-03-07T17:07:22-08:00","5",1,"Stimuli/versionDstim.txt","Procedure/versionDproc.txt","Tetris",NA,"DORM","","DORM","OFF","Cat_Recall_L4",68,"Study","No","3","Cat_Recall_L4","ON","",3000,NA,NA,NA,NA,NA,NA,NA,NA
"A3SKEW89V5S0DI","Collector",1,74,"2016-03-07T17:07:26-08:00","4",1,"Stimuli/versionDstim.txt","Procedure/versionDproc.txt","Tetris",NA,"IGLOO","","IGLOO","OFF","Cat_Recall_L4",69,"Study","No","3","Cat_Recall_L4","ON","",3000,NA,NA,NA,NA,NA,NA,NA,NA
"A3SKEW89V5S0DI","Collector",1,75,"2016-03-07T17:07:30-08:00","4",1,"Stimuli/versionDstim.txt","Procedure/versionDproc.txt","Tetris",NA,"COTTAGE","","COTTAGE","OFF","Cat_Recall_L4",67,"Study","No","3","Cat_Recall_L4","ON","",3000,NA,NA,NA,NA,NA,NA,NA,NA
"A3SKEW89V5S0DI","Collector",1,76,"2016-03-07T17:07:34-08:00","4",1,"Stimuli/versionDstim.txt","Procedure/versionDproc.txt","Tetris",NA,"BARRACKS","","BARRACKS","OFF","Cat_Recall_L4",81,"Study","No","3","Cat_Recall_L4","ON","",3000,NA,NA,NA,NA,NA,NA,NA,NA
"A3SKEW89V5S0DI","Collector",1,77,"2016-03-07T17:07:38-08:00","4",1,"Stimuli/versionDstim.txt","Procedure/versionDproc.txt","Tetris",NA,"TEPEE","","TEPEE","OFF","Cat_Recall_L4",71,"Study","No","3","Cat_Recall_L4","ON","",3000,NA,NA,NA,NA,NA,NA,NA,NA
"A3SKEW89V5S0DI","Collector",1,78,"2016-03-07T17:07:43-08:00","5",1,"Stimuli/versionDstim.txt","Procedure/versionDproc.txt","Tetris",NA,"PENTHOUSE","","PENTHOUSE","OFF","Cat_Recall_L4",80,"Study","No","3","Cat_Recall_L4","ON","",3000,NA,NA,NA,NA,NA,NA,NA,NA
"A3SKEW89V5S0DI","Collector",1,79,"2016-03-07T17:07:47-08:00","4",1,"Stimuli/versionDstim.txt","Procedure/versionDproc.txt","Tetris",NA,"LODGE","","LODGE","OFF","Cat_Recall_L4",70,"Study","No","3","Cat_Recall_L4","ON","",3000,NA,NA,NA,NA,NA,NA,NA,NA
"A3SKEW89V5S0DI","Collector",1,80,"2016-03-07T17:07:51-08:00","4",1,"Stimuli/versionDstim.txt","Procedure/versionDproc.txt","Tetris",NA,"BUNGALOW","","BUNGALOW","OFF","Cat_Recall_L4",74,"Study","No","3","Cat_Recall_L4","ON","",3000,NA,NA,NA,NA,NA,NA,NA,NA
"A3SKEW89V5S0DI","Collector",1,81,"2016-03-07T17:07:55-08:00","4",1,"Stimuli/versionDstim.txt","Procedure/versionDproc.txt","Tetris",NA,"BUILDING","","BUILDING","OFF","Cat_Recall_L4",76,"Study","No","3","Cat_Recall_L4","ON","",3000,NA,NA,NA,NA,NA,NA,NA,NA
"A3SKEW89V5S0DI","Collector",1,82,"2016-03-07T17:08:01-08:00","6",1,"Stimuli/versionDstim.txt","Procedure/versionDproc.txt","Tetris",NA,"SHACK ","","SHACK ","OFF","Cat_Recall_L4",65,"Study","No","3","Cat_Recall_L4","ON","",3000,NA,NA,NA,NA,NA,NA,NA,NA
"A3SKEW89V5S0DI","Collector",1,83,"2016-03-07T17:08:06-08:00","5",1,"Stimuli/versionDstim.txt","Procedure/versionDproc.txt","Tetris",NA,"MOTEL","","MOTEL","OFF","Cat_Recall_L4",64,"Study","No","3","Cat_Recall_L4","ON","",3000,NA,NA,NA,NA,NA,NA,NA,NA
"A3SKEW89V5S0DI","Collector",1,84,"2016-03-07T17:08:10-08:00","4",1,"Stimuli/versionDstim.txt","Procedure/versionDproc.txt","Tetris",NA,"TOWNHOME","","TOWNHOME","OFF","Cat_Recall_L4",78,"Study","No","3","Cat_Recall_L4","ON","",3000,NA,NA,NA,NA,NA,NA,NA,NA
"A3SKEW89V5S0DI","Collector",1,85,"2016-03-07T17:08:14-08:00","4",1,"Stimuli/versionDstim.txt","Procedure/versionDproc.txt","Tetris",NA,"HOUSEBOAT","","HOUSEBOAT","OFF","Cat_Recall_L4",73,"Study","No","3","Cat_Recall_L4","ON","",3000,NA,NA,NA,NA,NA,NA,NA,NA
"A3SKEW89V5S0DI","Collector",1,86,"2016-03-07T17:08:18-08:00","4",1,"Stimuli/versionDstim.txt","Procedure/versionDproc.txt","Tetris",NA,"TRAILER","","TRAILER","OFF","Cat_Recall_L4",63,"Study","No","3","Cat_Recall_L4","ON","",3000,NA,NA,NA,NA,NA,NA,NA,NA
"A3SKEW89V5S0DI","Collector",1,87,"2016-03-07T17:08:23-08:00","5",1,"Stimuli/versionDstim.txt","Procedure/versionDproc.txt","Tetris",NA,"PALACE","","PALACE","OFF","Cat_Recall_L4",79,"Study","No","3","Cat_Recall_L4","ON","",3000,NA,NA,NA,NA,NA,NA,NA,NA
"A3SKEW89V5S0DI","Collector",1,88,"2016-03-07T17:08:29-08:00","6",1,"Stimuli/versionDstim.txt","Procedure/versionDproc.txt","Tetris",NA,"HOTEL","","HOTEL","OFF","Cat_Recall_L4",62,"Study","No","3","Cat_Recall_L4","ON","",3000,NA,NA,NA,NA,NA,NA,NA,NA
"A3SKEW89V5S0DI","Collector",1,89,"2016-03-07T17:08:33-08:00","4",1,"Stimuli/versionDstim.txt","Procedure/versionDproc.txt","Tetris",NA,"CASTLE","","CASTLE","OFF","Cat_Recall_L4",72,"Study","No","3","Cat_Recall_L4","ON","",3000,NA,NA,NA,NA,NA,NA,NA,NA
"A3SKEW89V5S0DI","Collector",1,90,"2016-03-07T17:08:37-08:00","4",1,"Stimuli/versionDstim.txt","Procedure/versionDproc.txt","Tetris",NA,"MANSION","","MANSION","OFF","Cat_Recall_L4",66,"Study","No","3","Cat_Recall_L4","ON","",3000,NA,NA,NA,NA,NA,NA,NA,NA
"A3SKEW89V5S0DI","Collector",1,91,"2016-03-07T17:08:40-08:00","3",1,"Stimuli/versionDstim.txt","Procedure/versionDproc.txt","Tetris",NA,"n/a","n/a","n/a","n/a","n/a",0,"Instruct","N/A","User","Recall Instructions: Recall the words that you saw from memory by typing them into the dialog box on the next screen. You will have 1 minute. Click the button below to begin.","OFF","",2100,NA,NA,NA,NA,NA,NA,NA,NA
"A3SKEW89V5S0DI","Collector",1,92,"2016-03-07T17:09:41-08:00","61",1,"Stimuli/versionDstim.txt","Procedure/versionDproc.txt","Tetris",NA,"n/a","n/a","n/a","n/a","n/a",0,"freerecall","N/A","60","Recall now in the box. Spelling will not be counted against you. The computer will advance when your minute is up.","OFF","mansion <br />  <br /> castle <br />  <br /> houseboat <br />  <br /> dorm <br />  <br /> room <br />  <br /> cottage <br />  <br /> building <br />  <br /> trailer <br />  <br /> ",60000,390,45950,NA,NA,NA,NA,NA,NA
"A3SKEW89V5S0DI","Collector",1,93,"2016-03-07T17:09:44-08:00","3",1,"Stimuli/versionDstim.txt","Procedure/versionDproc.txt","Tetris",NA,"n/a","n/a","n/a","n/a","n/a",0,"Instruct","N/A","User","Click the button below for the next list.","OFF","",1040,NA,NA,NA,NA,NA,NA,NA,NA
"A3SKEW89V5S0DI","Collector",1,94,"2016-03-07T17:09:48-08:00","4",1,"Stimuli/versionDstim.txt","Procedure/versionDproc.txt","Tetris",NA,"PITCHFORK","","PITCHFORK","OFF","Cat_Recall_L5",90,"Study","No","3","Cat_Recall_L5","ON","",3000,NA,NA,NA,NA,NA,NA,NA,NA
"A3SKEW89V5S0DI","Collector",1,95,"2016-03-07T17:09:52-08:00","4",1,"Stimuli/versionDstim.txt","Procedure/versionDproc.txt","Tetris",NA,"EDGER","","EDGER","OFF","Cat_Recall_L5",100,"Study","No","3","Cat_Recall_L5","ON","",3000,NA,NA,NA,NA,NA,NA,NA,NA
"A3SKEW89V5S0DI","Collector",1,96,"2016-03-07T17:09:58-08:00","6",1,"Stimuli/versionDstim.txt","Procedure/versionDproc.txt","Tetris",NA,"PICK","","PICK","OFF","Cat_Recall_L5",83,"Study","No","3","Cat_Recall_L5","ON","",3000,NA,NA,NA,NA,NA,NA,NA,NA
"A3SKEW89V5S0DI","Collector",1,97,"2016-03-07T17:10:02-08:00","4",1,"Stimuli/versionDstim.txt","Procedure/versionDproc.txt","Tetris",NA,"MACHETE","","MACHETE","OFF","Cat_Recall_L5",96,"Study","No","3","Cat_Recall_L5","ON","",3000,NA,NA,NA,NA,NA,NA,NA,NA
"A3SKEW89V5S0DI","Collector",1,98,"2016-03-07T17:10:06-08:00","4",1,"Stimuli/versionDstim.txt","Procedure/versionDproc.txt","Tetris",NA,"BASKET","","BASKET","OFF","Cat_Recall_L5",84,"Study","No","3","Cat_Recall_L5","ON","",3000,NA,NA,NA,NA,NA,NA,NA,NA
"A3SKEW89V5S0DI","Collector",1,99,"2016-03-07T17:10:14-08:00","8",1,"Stimuli/versionDstim.txt","Procedure/versionDproc.txt","Tetris",NA,"COMPOST","","COMPOST","OFF","Cat_Recall_L5",94,"Study","No","3","Cat_Recall_L5","ON","",3000,NA,NA,NA,NA,NA,NA,NA,NA
"A3SKEW89V5S0DI","Collector",1,100,"2016-03-07T17:10:18-08:00","4",1,"Stimuli/versionDstim.txt","Procedure/versionDproc.txt","Tetris",NA,"SIEVE","","SIEVE","OFF","Cat_Recall_L5",101,"Study","No","3","Cat_Recall_L5","ON","",3000,NA,NA,NA,NA,NA,NA,NA,NA
"A3SKEW89V5S0DI","Collector",1,101,"2016-03-07T17:10:22-08:00","4",1,"Stimuli/versionDstim.txt","Procedure/versionDproc.txt","Tetris",NA,"SPRINKLER","","SPRINKLER","OFF","Cat_Recall_L5",91,"Study","No","3","Cat_Recall_L5","ON","",3000,NA,NA,NA,NA,NA,NA,NA,NA
"A3SKEW89V5S0DI","Collector",1,102,"2016-03-07T17:10:26-08:00","4",1,"Stimuli/versionDstim.txt","Procedure/versionDproc.txt","Tetris",NA,"TROWEL","","TROWEL","OFF","Cat_Recall_L5",87,"Study","No","3","Cat_Recall_L5","ON","",3000,NA,NA,NA,NA,NA,NA,NA,NA
"A3SKEW89V5S0DI","Collector",1,103,"2016-03-07T17:10:30-08:00","4",1,"Stimuli/versionDstim.txt","Procedure/versionDproc.txt","Tetris",NA,"CLIPPERS","","CLIPPERS","OFF","Cat_Recall_L5",95,"Study","No","3","Cat_Recall_L5","ON","",3000,NA,NA,NA,NA,NA,NA,NA,NA
"A3SKEW89V5S0DI","Collector",1,104,"2016-03-07T17:10:34-08:00","4",1,"Stimuli/versionDstim.txt","Procedure/versionDproc.txt","Tetris",NA,"WHEELBARROW","","WHEELBARROW","OFF","Cat_Recall_L5",99,"Study","No","3","Cat_Recall_L5","ON","",3000,NA,NA,NA,NA,NA,NA,NA,NA
"A3SKEW89V5S0DI","Collector",1,105,"2016-03-07T17:10:40-08:00","6",1,"Stimuli/versionDstim.txt","Procedure/versionDproc.txt","Tetris",NA,"SCYTHE","","SCYTHE","OFF","Cat_Recall_L5",98,"Study","No","3","Cat_Recall_L5","ON","",3000,NA,NA,NA,NA,NA,NA,NA,NA
"A3SKEW89V5S0DI","Collector",1,106,"2016-03-07T17:10:44-08:00","4",1,"Stimuli/versionDstim.txt","Procedure/versionDproc.txt","Tetris",NA,"TRIMMER","","TRIMMER","OFF","Cat_Recall_L5",97,"Study","No","3","Cat_Recall_L5","ON","",3000,NA,NA,NA,NA,NA,NA,NA,NA
"A3SKEW89V5S0DI","Collector",1,107,"2016-03-07T17:10:48-08:00","4",1,"Stimuli/versionDstim.txt","Procedure/versionDproc.txt","Tetris",NA,"PLANTER","","PLANTER","OFF","Cat_Recall_L5",93,"Study","No","3","Cat_Recall_L5","ON","",3000,NA,NA,NA,NA,NA,NA,NA,NA
"A3SKEW89V5S0DI","Collector",1,108,"2016-03-07T17:10:52-08:00","4",1,"Stimuli/versionDstim.txt","Procedure/versionDproc.txt","Tetris",NA,"SHEARS","","SHEARS","OFF","Cat_Recall_L5",88,"Study","No","3","Cat_Recall_L5","ON","",3000,NA,NA,NA,NA,NA,NA,NA,NA
"A3SKEW89V5S0DI","Collector",1,109,"2016-03-07T17:10:56-08:00","4",1,"Stimuli/versionDstim.txt","Procedure/versionDproc.txt","Tetris",NA,"CULTIVATOR","","CULTIVATOR","OFF","Cat_Recall_L5",92,"Study","No","3","Cat_Recall_L5","ON","",3000,NA,NA,NA,NA,NA,NA,NA,NA
"A3SKEW89V5S0DI","Collector",1,110,"2016-03-07T17:11:00-08:00","4",1,"Stimuli/versionDstim.txt","Procedure/versionDproc.txt","Tetris",NA,"SEEDS","","SEEDS","OFF","Cat_Recall_L5",86,"Study","No","3","Cat_Recall_L5","ON","",3000,NA,NA,NA,NA,NA,NA,NA,NA
"A3SKEW89V5S0DI","Collector",1,111,"2016-03-07T17:11:04-08:00","4",1,"Stimuli/versionDstim.txt","Procedure/versionDproc.txt","Tetris",NA,"PLOW","","PLOW","OFF","Cat_Recall_L5",85,"Study","No","3","Cat_Recall_L5","ON","",3000,NA,NA,NA,NA,NA,NA,NA,NA
"A3SKEW89V5S0DI","Collector",1,112,"2016-03-07T17:11:09-08:00","5",1,"Stimuli/versionDstim.txt","Procedure/versionDproc.txt","Tetris",NA,"BUCKET","","BUCKET","OFF","Cat_Recall_L5",89,"Study","No","3","Cat_Recall_L5","ON","",3000,NA,NA,NA,NA,NA,NA,NA,NA
"A3SKEW89V5S0DI","Collector",1,113,"2016-03-07T17:11:13-08:00","4",1,"Stimuli/versionDstim.txt","Procedure/versionDproc.txt","Tetris",NA,"SPADE","","SPADE","OFF","Cat_Recall_L5",82,"Study","No","3","Cat_Recall_L5","ON","",3000,NA,NA,NA,NA,NA,NA,NA,NA
"A3SKEW89V5S0DI","Collector",1,114,"2016-03-07T17:11:17-08:00","4",1,"Stimuli/versionDstim.txt","Procedure/versionDproc.txt","Tetris",NA,"n/a","n/a","n/a","n/a","n/a",0,"Instruct","N/A","User","Recall Instructions: Recall the words that you saw from memory by typing them into the dialog box on the next screen. You will have 1 minute. Click the button below to begin.","OFF","",2520,NA,NA,NA,NA,NA,NA,NA,NA
"A3SKEW89V5S0DI","Collector",1,115,"2016-03-07T17:12:19-08:00","62",1,"Stimuli/versionDstim.txt","Procedure/versionDproc.txt","Tetris",NA,"n/a","n/a","n/a","n/a","n/a",0,"freerecall","N/A","60","Recall now in the box. Spelling will not be counted against you. The computer will advance when your minute is up.","OFF","spade <br />  <br /> pitchfork <br />  <br /> trowel <br />  <br /> scythe <br />  <br /> basket <br />  <br /> sprinkler <br />  <br /> compost <br />  <br /> edger <br />  <br /> wheelbarrow <br />  <br /> ",60000,1250,39220,NA,NA,NA,NA,NA,NA
"A3SKEW89V5S0DI","Collector",1,116,"2016-03-07T17:12:24-08:00","5",1,"Stimuli/versionDstim.txt","Procedure/versionDproc.txt","Tetris",NA,"n/a","n/a","n/a","n/a","n/a",0,"Instruct","N/A","User","Click the button below for the next list.","OFF","",1300,NA,NA,NA,NA,NA,NA,NA,NA
"A3SKEW89V5S0DI","Collector",1,117,"2016-03-07T17:12:29-08:00","5",1,"Stimuli/versionDstim.txt","Procedure/versionDproc.txt","Tetris",NA,"WIZARD","","WIZARD","OFF","Unrel_Recall_L6",107,"Study","No","3","Unrel_Recall_L6","ON","",3000,NA,NA,NA,NA,NA,NA,NA,NA
"A3SKEW89V5S0DI","Collector",1,118,"2016-03-07T17:12:33-08:00","4",1,"Stimuli/versionDstim.txt","Procedure/versionDproc.txt","Tetris",NA,"CLASS","","CLASS","OFF","Unrel_Recall_L6",119,"Study","No","3","Unrel_Recall_L6","ON","",3000,NA,NA,NA,NA,NA,NA,NA,NA
"A3SKEW89V5S0DI","Collector",1,119,"2016-03-07T17:12:37-08:00","4",1,"Stimuli/versionDstim.txt","Procedure/versionDproc.txt","Tetris",NA,"ANVIL","","ANVIL","OFF","Unrel_Recall_L6",102,"Study","No","3","Unrel_Recall_L6","ON","",3000,NA,NA,NA,NA,NA,NA,NA,NA
"A3SKEW89V5S0DI","Collector",1,120,"2016-03-07T17:12:41-08:00","4",1,"Stimuli/versionDstim.txt","Procedure/versionDproc.txt","Tetris",NA,"FOUL","","FOUL","OFF","Unrel_Recall_L6",108,"Study","No","3","Unrel_Recall_L6","ON","",3000,NA,NA,NA,NA,NA,NA,NA,NA
"A3SKEW89V5S0DI","Collector",1,121,"2016-03-07T17:12:45-08:00","4",1,"Stimuli/versionDstim.txt","Procedure/versionDproc.txt","Tetris",NA,"LANDMARK","","LANDMARK","OFF","Unrel_Recall_L6",103,"Study","No","3","Unrel_Recall_L6","ON","",3000,NA,NA,NA,NA,NA,NA,NA,NA
"A3SKEW89V5S0DI","Collector",1,122,"2016-03-07T17:12:50-08:00","5",1,"Stimuli/versionDstim.txt","Procedure/versionDproc.txt","Tetris",NA,"BOULDER","","BOULDER","OFF","Unrel_Recall_L6",110,"Study","No","3","Unrel_Recall_L6","ON","",3000,NA,NA,NA,NA,NA,NA,NA,NA
"A3SKEW89V5S0DI","Collector",1,123,"2016-03-07T17:12:54-08:00","4",1,"Stimuli/versionDstim.txt","Procedure/versionDproc.txt","Tetris",NA,"IRON","","IRON","OFF","Unrel_Recall_L6",114,"Study","No","3","Unrel_Recall_L6","ON","",3000,NA,NA,NA,NA,NA,NA,NA,NA
"A3SKEW89V5S0DI","Collector",1,124,"2016-03-07T17:12:58-08:00","4",1,"Stimuli/versionDstim.txt","Procedure/versionDproc.txt","Tetris",NA,"LASER","","LASER","OFF","Unrel_Recall_L6",121,"Study","No","3","Unrel_Recall_L6","ON","",3000,NA,NA,NA,NA,NA,NA,NA,NA
"A3SKEW89V5S0DI","Collector",1,125,"2016-03-07T17:13:03-08:00","5",1,"Stimuli/versionDstim.txt","Procedure/versionDproc.txt","Tetris",NA,"JAZZ","","JAZZ","OFF","Unrel_Recall_L6",116,"Study","No","3","Unrel_Recall_L6","ON","",3000,NA,NA,NA,NA,NA,NA,NA,NA
"A3SKEW89V5S0DI","Collector",1,126,"2016-03-07T17:13:07-08:00","4",1,"Stimuli/versionDstim.txt","Procedure/versionDproc.txt","Tetris",NA,"DOWEL","","DOWEL","OFF","Unrel_Recall_L6",113,"Study","No","3","Unrel_Recall_L6","ON","",3000,NA,NA,NA,NA,NA,NA,NA,NA
"A3SKEW89V5S0DI","Collector",1,127,"2016-03-07T17:13:11-08:00","4",1,"Stimuli/versionDstim.txt","Procedure/versionDproc.txt","Tetris",NA,"MAUVE","","MAUVE","OFF","Unrel_Recall_L6",112,"Study","No","3","Unrel_Recall_L6","ON","",3000,NA,NA,NA,NA,NA,NA,NA,NA
"A3SKEW89V5S0DI","Collector",1,128,"2016-03-07T17:13:15-08:00","4",1,"Stimuli/versionDstim.txt","Procedure/versionDproc.txt","Tetris",NA,"WINDSHIELD","","WINDSHIELD","OFF","Unrel_Recall_L6",104,"Study","No","3","Unrel_Recall_L6","ON","",3000,NA,NA,NA,NA,NA,NA,NA,NA
"A3SKEW89V5S0DI","Collector",1,129,"2016-03-07T17:13:19-08:00","4",1,"Stimuli/versionDstim.txt","Procedure/versionDproc.txt","Tetris",NA,"BLISTER","","BLISTER","OFF","Unrel_Recall_L6",106,"Study","No","3","Unrel_Recall_L6","ON","",3000,NA,NA,NA,NA,NA,NA,NA,NA
"A3SKEW89V5S0DI","Collector",1,130,"2016-03-07T17:13:23-08:00","4",1,"Stimuli/versionDstim.txt","Procedure/versionDproc.txt","Tetris",NA,"JACKPOT","","JACKPOT","OFF","Unrel_Recall_L6",120,"Study","No","3","Unrel_Recall_L6","ON","",3000,NA,NA,NA,NA,NA,NA,NA,NA
"A3SKEW89V5S0DI","Collector",1,131,"2016-03-07T17:13:30-08:00","7",1,"Stimuli/versionDstim.txt","Procedure/versionDproc.txt","Tetris",NA,"ZONE","","ZONE","OFF","Unrel_Recall_L6",105,"Study","No","3","Unrel_Recall_L6","ON","",3000,NA,NA,NA,NA,NA,NA,NA,NA
"A3SKEW89V5S0DI","Collector",1,132,"2016-03-07T17:13:35-08:00","5",1,"Stimuli/versionDstim.txt","Procedure/versionDproc.txt","Tetris",NA,"MASCOT","","MASCOT","OFF","Unrel_Recall_L6",118,"Study","No","3","Unrel_Recall_L6","ON","",3000,NA,NA,NA,NA,NA,NA,NA,NA
"A3SKEW89V5S0DI","Collector",1,133,"2016-03-07T17:13:39-08:00","4",1,"Stimuli/versionDstim.txt","Procedure/versionDproc.txt","Tetris",NA,"KNOCK","","KNOCK","OFF","Unrel_Recall_L6",111,"Study","No","3","Unrel_Recall_L6","ON","",3000,NA,NA,NA,NA,NA,NA,NA,NA
"A3SKEW89V5S0DI","Collector",1,134,"2016-03-07T17:13:43-08:00","4",1,"Stimuli/versionDstim.txt","Procedure/versionDproc.txt","Tetris",NA,"LADDER","","LADDER","OFF","Unrel_Recall_L6",117,"Study","No","3","Unrel_Recall_L6","ON","",3000,NA,NA,NA,NA,NA,NA,NA,NA
"A3SKEW89V5S0DI","Collector",1,135,"2016-03-07T17:13:47-08:00","4",1,"Stimuli/versionDstim.txt","Procedure/versionDproc.txt","Tetris",NA,"BROTH","","BROTH","OFF","Unrel_Recall_L6",115,"Study","No","3","Unrel_Recall_L6","ON","",3000,NA,NA,NA,NA,NA,NA,NA,NA
"A3SKEW89V5S0DI","Collector",1,136,"2016-03-07T17:13:52-08:00","5",1,"Stimuli/versionDstim.txt","Procedure/versionDproc.txt","Tetris",NA,"DAY","","DAY","OFF","Unrel_Recall_L6",109,"Study","No","3","Unrel_Recall_L6","ON","",3000,NA,NA,NA,NA,NA,NA,NA,NA
"A3SKEW89V5S0DI","Collector",1,137,"2016-03-07T17:13:54-08:00","2",1,"Stimuli/versionDstim.txt","Procedure/versionDproc.txt","Tetris",NA,"n/a","n/a","n/a","n/a","n/a",0,"Instruct","N/A","User","Recall Instructions: Recall the words that you saw from memory by typing them into the dialog box on the next screen. You will have 1 minute. Click the button below to begin.","OFF","",1440,NA,NA,NA,NA,NA,NA,NA,NA
"A3SKEW89V5S0DI","Collector",1,138,"2016-03-07T17:15:35-08:00","101",1,"Stimuli/versionDstim.txt","Procedure/versionDproc.txt","Tetris",NA,"n/a","n/a","n/a","n/a","n/a",0,"freerecall","N/A","60","Recall now in the box. Spelling will not be counted against you. The computer will advance when your minute is up.","OFF","wizard <br />  <br /> class <br />  <br /> anvil <br />  <br /> foul <br />  <br /> broth <br />  <br /> zone <br />  <br /> iron <br />  <br /> ",60000,510,21120,NA,NA,NA,NA,NA,NA
"A3SKEW89V5S0DI","Collector",1,139,"2016-03-07T17:15:44-08:00","9",1,"Stimuli/versionDstim.txt","Procedure/versionDproc.txt","Tetris",NA,"n/a","n/a","n/a","n/a","n/a",0,"Instruct","N/A","User","Now you will complete a recognition memory test based on the last 6 lists that you have studied. A word will be displayed on the computer screen and you are to decide whether the word was studied in the last 6 lists. If the word was studied, click the yes button. If the word was not studied, click the no button. Respond as quickly as possible without compromising accuracy.","OFF","",6980,NA,NA,NA,NA,NA,NA,NA,NA
"A3SKEW89V5S0DI","Collector",1,140,"2016-03-07T17:15:47-08:00","3",1,"Stimuli/versionDstim.txt","Procedure/versionDproc.txt","Tetris",NA,"n/a","n/a","n/a","n/a","n/a",0,"Instruct","N/A","User","Click the button below to begin the test.","OFF","",2300,NA,NA,NA,NA,NA,NA,NA,NA
"A3SKEW89V5S0DI","Collector",1,141,"2016-03-07T17:16:04-08:00","17",1,"Stimuli/versionDstim.txt","Procedure/versionDproc.txt","Tetris",NA,"SHOWER","","SHOWER","OFF","CI_AdHoc_Recall",277,"seqrec","No","User","RGN Test","ON","No",15950,NA,NA,NA,NA,NA,NA,NA,NA
"A3SKEW89V5S0DI","Collector",1,142,"2016-03-07T17:16:07-08:00","3",1,"Stimuli/versionDstim.txt","Procedure/versionDproc.txt","Tetris",NA,"CANYON","","CANYON","OFF","LI_Unrel_Recall",217,"seqrec","No","User","RGN Test","ON","No",930,NA,NA,NA,NA,NA,NA,NA,NA
"A3SKEW89V5S0DI","Collector",1,143,"2016-03-07T17:16:09-08:00","2",1,"Stimuli/versionDstim.txt","Procedure/versionDproc.txt","Tetris",NA,"GEAR","","GEAR","OFF","NPLI_AdHoc_Recall",135,"seqrec","No","User","RGN Test","ON","No",530,NA,NA,NA,NA,NA,NA,NA,NA
"A3SKEW89V5S0DI","Collector",1,144,"2016-03-07T17:16:11-08:00","2",1,"Stimuli/versionDstim.txt","Procedure/versionDproc.txt","Tetris",NA,"VANILLA","","VANILLA","OFF","NPLI_Cat_Recall",122,"seqrec","No","User","RGN Test","ON","No",500,NA,NA,NA,NA,NA,NA,NA,NA
"A3SKEW89V5S0DI","Collector",1,145,"2016-03-07T17:16:13-08:00","2",1,"Stimuli/versionDstim.txt","Procedure/versionDproc.txt","Tetris",NA,"KNOCK","","KNOCK","OFF","LI_Unrel_Recall",266,"seqrec","No","User","RGN Test","ON","Yes",1130,NA,NA,NA,NA,NA,NA,NA,NA
"A3SKEW89V5S0DI","Collector",1,146,"2016-03-07T17:16:15-08:00","2",1,"Stimuli/versionDstim.txt","Procedure/versionDproc.txt","Tetris",NA,"SPIRAL","","SPIRAL","OFF","NPLI_AdHoc_Recall",139,"seqrec","No","User","RGN Test","ON","No",1020,NA,NA,NA,NA,NA,NA,NA,NA
"A3SKEW89V5S0DI","Collector",1,147,"2016-03-07T17:16:17-08:00","2",1,"Stimuli/versionDstim.txt","Procedure/versionDproc.txt","Tetris",NA,"HOSE","","HOSE","OFF","CI_Cat_Recall",296,"seqrec","No","User","RGN Test","ON","No",850,NA,NA,NA,NA,NA,NA,NA,NA
"A3SKEW89V5S0DI","Collector",1,148,"2016-03-07T17:16:20-08:00","3",1,"Stimuli/versionDstim.txt","Procedure/versionDproc.txt","Tetris",NA,"ZONE","","ZONE","OFF","LI_Unrel_Recall",263,"seqrec","No","User","RGN Test","ON","Yes",1040,NA,NA,NA,NA,NA,NA,NA,NA
"A3SKEW89V5S0DI","Collector",1,149,"2016-03-07T17:16:22-08:00","2",1,"Stimuli/versionDstim.txt","Procedure/versionDproc.txt","Tetris",NA,"GINGER","","GINGER","OFF","NPLI_Cat_Recall",128,"seqrec","No","User","RGN Test","ON","No",940,NA,NA,NA,NA,NA,NA,NA,NA
"A3SKEW89V5S0DI","Collector",1,150,"2016-03-07T17:16:24-08:00","2",1,"Stimuli/versionDstim.txt","Procedure/versionDproc.txt","Tetris",NA,"WARDEN","","WARDEN","OFF","CI_AdHoc_Recall",286,"seqrec","No","User","RGN Test","ON","No",510,NA,NA,NA,NA,NA,NA,NA,NA
"A3SKEW89V5S0DI","Collector",1,151,"2016-03-07T17:16:26-08:00","2",1,"Stimuli/versionDstim.txt","Procedure/versionDproc.txt","Tetris",NA,"WINCH","","WINCH","OFF","LI_Unrel_Recall",215,"seqrec","No","User","RGN Test","ON","Yes",1000,NA,NA,NA,NA,NA,NA,NA,NA
"A3SKEW89V5S0DI","Collector",1,152,"2016-03-07T17:16:30-08:00","4",1,"Stimuli/versionDstim.txt","Procedure/versionDproc.txt","Tetris",NA,"PINT","","PINT","OFF","NPLI_Unrel_Recall",157,"seqrec","No","User","RGN Test","ON","No",1120,NA,NA,NA,NA,NA,NA,NA,NA
"A3SKEW89V5S0DI","Collector",1,153,"2016-03-07T17:16:33-08:00","3",1,"Stimuli/versionDstim.txt","Procedure/versionDproc.txt","Tetris",NA,"APARTMENT","","APARTMENT","OFF","CI_Cat_Recall",287,"seqrec","No","User","RGN Test","ON","No",1230,NA,NA,NA,NA,NA,NA,NA,NA
"A3SKEW89V5S0DI","Collector",1,154,"2016-03-07T17:16:36-08:00","3",1,"Stimuli/versionDstim.txt","Procedure/versionDproc.txt","Tetris",NA,"WORSTED","","WORSTED","OFF","NPLI_Cat_Recall",163,"seqrec","No","User","RGN Test","ON","No",900,NA,NA,NA,NA,NA,NA,NA,NA
"A3SKEW89V5S0DI","Collector",1,155,"2016-03-07T17:16:39-08:00","3",1,"Stimuli/versionDstim.txt","Procedure/versionDproc.txt","Tetris",NA,"OFFICER","","OFFICER","OFF","LI_AdHoc_Recall",239,"seqrec","No","User","RGN Test","ON","No",800,NA,NA,NA,NA,NA,NA,NA,NA
"A3SKEW89V5S0DI","Collector",1,156,"2016-03-07T17:16:41-08:00","2",1,"Stimuli/versionDstim.txt","Procedure/versionDproc.txt","Tetris",NA,"LABEL","","LABEL","OFF","CI_Unrel_Recall",276,"seqrec","No","User","RGN Test","ON","No",790,NA,NA,NA,NA,NA,NA,NA,NA
"A3SKEW89V5S0DI","Collector",1,157,"2016-03-07T17:16:44-08:00","3",1,"Stimuli/versionDstim.txt","Procedure/versionDproc.txt","Tetris",NA,"GARLIC","","GARLIC","OFF","NPCI_Cat_Recall",182,"seqrec","No","User","RGN Test","ON","Yes",1680,NA,NA,NA,NA,NA,NA,NA,NA
"A3SKEW89V5S0DI","Collector",1,158,"2016-03-07T17:16:48-08:00","4",1,"Stimuli/versionDstim.txt","Procedure/versionDproc.txt","Tetris",NA,"GUARD","","GUARD","OFF","LI_AdHoc_Recall",235,"seqrec","No","User","RGN Test","ON","No",1650,NA,NA,NA,NA,NA,NA,NA,NA
"A3SKEW89V5S0DI","Collector",1,159,"2016-03-07T17:16:50-08:00","2",1,"Stimuli/versionDstim.txt","Procedure/versionDproc.txt","Tetris",NA,"CAROUSEL","","CAROUSEL","OFF","NPCI_AdHoc_Recall",190,"seqrec","No","User","RGN Test","ON","No",1340,NA,NA,NA,NA,NA,NA,NA,NA
"A3SKEW89V5S0DI","Collector",1,160,"2016-03-07T17:16:52-08:00","2",1,"Stimuli/versionDstim.txt","Procedure/versionDproc.txt","Tetris",NA,"DESERT","","DESERT","OFF","NPLI_Unrel_Recall",144,"seqrec","No","User","RGN Test","ON","No",580,NA,NA,NA,NA,NA,NA,NA,NA
"A3SKEW89V5S0DI","Collector",1,161,"2016-03-07T17:16:55-08:00","3",1,"Stimuli/versionDstim.txt","Procedure/versionDproc.txt","Tetris",NA,"ROLLING PIN","","ROLLING PIN","OFF","NPCI_AdHoc_Recall",207,"seqrec","No","User","RGN Test","ON","No",830,NA,NA,NA,NA,NA,NA,NA,NA
"A3SKEW89V5S0DI","Collector",1,162,"2016-03-07T17:16:57-08:00","2",1,"Stimuli/versionDstim.txt","Procedure/versionDproc.txt","Tetris",NA,"CALENDAR","","CALENDAR","OFF","NPCI_Unrel_Recall",196,"seqrec","No","User","RGN Test","ON","No",980,NA,NA,NA,NA,NA,NA,NA,NA
"A3SKEW89V5S0DI","Collector",1,163,"2016-03-07T17:16:59-08:00","2",1,"Stimuli/versionDstim.txt","Procedure/versionDproc.txt","Tetris",NA,"MANUAL","","MANUAL","OFF","NPLI_Unrel_Recall",149,"seqrec","No","User","RGN Test","ON","No",670,NA,NA,NA,NA,NA,NA,NA,NA
"A3SKEW89V5S0DI","Collector",1,164,"2016-03-07T17:17:00-08:00","1",1,"Stimuli/versionDstim.txt","Procedure/versionDproc.txt","Tetris",NA,"NYLON","","NYLON","OFF","NPCI_Cat_Recall",204,"seqrec","No","User","RGN Test","ON","No",470,NA,NA,NA,NA,NA,NA,NA,NA
"A3SKEW89V5S0DI","Collector",1,165,"2016-03-07T17:17:03-08:00","3",1,"Stimuli/versionDstim.txt","Procedure/versionDproc.txt","Tetris",NA,"LANDMARK","","LANDMARK","OFF","LI_Unrel_Recall",262,"seqrec","No","User","RGN Test","ON","Yes",1180,NA,NA,NA,NA,NA,NA,NA,NA
"A3SKEW89V5S0DI","Collector",1,166,"2016-03-07T17:17:05-08:00","2",1,"Stimuli/versionDstim.txt","Procedure/versionDproc.txt","Tetris",NA,"INJURY","","INJURY","OFF","CI_Unrel_Recall",275,"seqrec","No","User","RGN Test","ON","No",880,NA,NA,NA,NA,NA,NA,NA,NA
"A3SKEW89V5S0DI","Collector",1,167,"2016-03-07T17:17:07-08:00","2",1,"Stimuli/versionDstim.txt","Procedure/versionDproc.txt","Tetris",NA,"DUPLEX","","DUPLEX","OFF","LI_Cat_Recall",249,"seqrec","No","User","RGN Test","ON","Yes",1250,NA,NA,NA,NA,NA,NA,NA,NA
"A3SKEW89V5S0DI","Collector",1,168,"2016-03-07T17:17:09-08:00","2",1,"Stimuli/versionDstim.txt","Procedure/versionDproc.txt","Tetris",NA,"ROOM","","ROOM","OFF","LI_Cat_Recall",248,"seqrec","No","User","RGN Test","ON","Yes",660,NA,NA,NA,NA,NA,NA,NA,NA
"A3SKEW89V5S0DI","Collector",1,169,"2016-03-07T17:17:12-08:00","3",1,"Stimuli/versionDstim.txt","Procedure/versionDproc.txt","Tetris",NA,"CABLE","","CABLE","OFF","NPCI_Unrel_Recall",193,"seqrec","No","User","RGN Test","ON","No",1850,NA,NA,NA,NA,NA,NA,NA,NA
"A3SKEW89V5S0DI","Collector",1,170,"2016-03-07T17:17:15-08:00","3",1,"Stimuli/versionDstim.txt","Procedure/versionDproc.txt","Tetris",NA,"DOWEL","","DOWEL","OFF","LI_Unrel_Recall",267,"seqrec","No","User","RGN Test","ON","Yes",1290,NA,NA,NA,NA,NA,NA,NA,NA
"A3SKEW89V5S0DI","Collector",1,171,"2016-03-07T17:17:17-08:00","2",1,"Stimuli/versionDstim.txt","Procedure/versionDproc.txt","Tetris",NA,"COLOGNE","","COLOGNE","OFF","CI_AdHoc_Recall",280,"seqrec","No","User","RGN Test","ON","No",1070,NA,NA,NA,NA,NA,NA,NA,NA
"A3SKEW89V5S0DI","Collector",1,172,"2016-03-07T17:17:19-08:00","2",1,"Stimuli/versionDstim.txt","Procedure/versionDproc.txt","Tetris",NA,"SHAVER","","SHAVER","OFF","LI_AdHoc_Recall",227,"seqrec","No","User","RGN Test","ON","No",710,NA,NA,NA,NA,NA,NA,NA,NA
"A3SKEW89V5S0DI","Collector",1,173,"2016-03-07T17:17:21-08:00","2",1,"Stimuli/versionDstim.txt","Procedure/versionDproc.txt","Tetris",NA,"ACORN","","ACORN","OFF","NPLI_Unrel_Recall",160,"seqrec","No","User","RGN Test","ON","No",460,NA,NA,NA,NA,NA,NA,NA,NA
"A3SKEW89V5S0DI","Collector",1,174,"2016-03-07T17:17:22-08:00","1",1,"Stimuli/versionDstim.txt","Procedure/versionDproc.txt","Tetris",NA,"DEBT","","DEBT","OFF","NPLI_Unrel_Recall",142,"seqrec","No","User","RGN Test","ON","No",360,NA,NA,NA,NA,NA,NA,NA,NA
"A3SKEW89V5S0DI","Collector",1,175,"2016-03-07T17:17:24-08:00","2",1,"Stimuli/versionDstim.txt","Procedure/versionDproc.txt","Tetris",NA,"LYCRA","","LYCRA","OFF","NPLI_Cat_Recall",171,"seqrec","No","User","RGN Test","ON","No",530,NA,NA,NA,NA,NA,NA,NA,NA
"A3SKEW89V5S0DI","Collector",1,176,"2016-03-07T17:17:27-08:00","3",1,"Stimuli/versionDstim.txt","Procedure/versionDproc.txt","Tetris",NA,"FENCE","","FENCE","OFF","NPCI_AdHoc_Recall",210,"seqrec","No","User","RGN Test","ON","Yes",1790,NA,NA,NA,NA,NA,NA,NA,NA
"A3SKEW89V5S0DI","Collector",1,177,"2016-03-07T17:17:29-08:00","2",1,"Stimuli/versionDstim.txt","Procedure/versionDproc.txt","Tetris",NA,"JERSEY","","JERSEY","OFF","NPLI_Cat_Recall",168,"seqrec","No","User","RGN Test","ON","No",1100,NA,NA,NA,NA,NA,NA,NA,NA
"A3SKEW89V5S0DI","Collector",1,178,"2016-03-07T17:17:31-08:00","2",1,"Stimuli/versionDstim.txt","Procedure/versionDproc.txt","Tetris",NA,"HAIR DRYER","","HAIR DRYER","OFF","LI_AdHoc_Recall",230,"seqrec","No","User","RGN Test","ON","No",1580,NA,NA,NA,NA,NA,NA,NA,NA
"A3SKEW89V5S0DI","Collector",1,179,"2016-03-07T17:17:33-08:00","2",1,"Stimuli/versionDstim.txt","Procedure/versionDproc.txt","Tetris",NA,"DETECTIVE","","DETECTIVE","OFF","LI_AdHoc_Recall",241,"seqrec","No","User","RGN Test","ON","Yes",880,NA,NA,NA,NA,NA,NA,NA,NA
"A3SKEW89V5S0DI","Collector",1,180,"2016-03-07T17:17:35-08:00","2",1,"Stimuli/versionDstim.txt","Procedure/versionDproc.txt","Tetris",NA,"WHEELBARROW","","WHEELBARROW","OFF","LI_Cat_Recall",260,"seqrec","No","User","RGN Test","ON","Yes",560,NA,NA,NA,NA,NA,NA,NA,NA
"A3SKEW89V5S0DI","Collector",1,181,"2016-03-07T17:17:37-08:00","2",1,"Stimuli/versionDstim.txt","Procedure/versionDproc.txt","Tetris",NA,"BARREL","","BARREL","OFF","NPCI_AdHoc_Recall",209,"seqrec","No","User","RGN Test","ON","No",1270,NA,NA,NA,NA,NA,NA,NA,NA
"A3SKEW89V5S0DI","Collector",1,182,"2016-03-07T17:17:39-08:00","2",1,"Stimuli/versionDstim.txt","Procedure/versionDproc.txt","Tetris",NA,"BICYCLE","","BICYCLE","OFF","NPLI_AdHoc_Recall",137,"seqrec","No","User","RGN Test","ON","No",670,NA,NA,NA,NA,NA,NA,NA,NA
"A3SKEW89V5S0DI","Collector",1,183,"2016-03-07T17:17:41-08:00","2",1,"Stimuli/versionDstim.txt","Procedure/versionDproc.txt","Tetris",NA,"TOOTHPICK","","TOOTHPICK","OFF","NPCI_AdHoc_Recall",211,"seqrec","No","User","RGN Test","ON","No",390,NA,NA,NA,NA,NA,NA,NA,NA
"A3SKEW89V5S0DI","Collector",1,184,"2016-03-07T17:17:42-08:00","1",1,"Stimuli/versionDstim.txt","Procedure/versionDproc.txt","Tetris",NA,"PICK","","PICK","OFF","LI_Cat_Recall",252,"seqrec","No","User","RGN Test","ON","No",440,NA,NA,NA,NA,NA,NA,NA,NA
"A3SKEW89V5S0DI","Collector",1,185,"2016-03-07T17:17:45-08:00","3",1,"Stimuli/versionDstim.txt","Procedure/versionDproc.txt","Tetris",NA,"DWARF","","DWARF","OFF","LI_Unrel_Recall",219,"seqrec","No","User","RGN Test","ON","Yes",1170,NA,NA,NA,NA,NA,NA,NA,NA
"A3SKEW89V5S0DI","Collector",1,186,"2016-03-07T17:17:46-08:00","1",1,"Stimuli/versionDstim.txt","Procedure/versionDproc.txt","Tetris",NA,"TROWEL","","TROWEL","OFF","LI_Cat_Recall",254,"seqrec","No","User","RGN Test","ON","Yes",600,NA,NA,NA,NA,NA,NA,NA,NA
"A3SKEW89V5S0DI","Collector",1,187,"2016-03-07T17:17:50-08:00","4",1,"Stimuli/versionDstim.txt","Procedure/versionDproc.txt","Tetris",NA,"EPISODE","","EPISODE","OFF","NPLI_Unrel_Recall",145,"seqrec","No","User","RGN Test","ON","No",2100,NA,NA,NA,NA,NA,NA,NA,NA
"A3SKEW89V5S0DI","Collector",1,188,"2016-03-07T17:17:51-08:00","1",1,"Stimuli/versionDstim.txt","Procedure/versionDproc.txt","Tetris",NA,"CAVE","","CAVE","OFF","CI_Cat_Recall",289,"seqrec","No","User","RGN Test","ON","No",670,NA,NA,NA,NA,NA,NA,NA,NA
"A3SKEW89V5S0DI","Collector",1,189,"2016-03-07T17:17:53-08:00","2",1,"Stimuli/versionDstim.txt","Procedure/versionDproc.txt","Tetris",NA,"BILLBOARD","","BILLBOARD","OFF","CI_Unrel_Recall",301,"seqrec","No","User","RGN Test","ON","No",720,NA,NA,NA,NA,NA,NA,NA,NA
"A3SKEW89V5S0DI","Collector",1,190,"2016-03-07T17:17:56-08:00","3",1,"Stimuli/versionDstim.txt","Procedure/versionDproc.txt","Tetris",NA,"CHAIN","","CHAIN","OFF","LI_AdHoc_Recall",237,"seqrec","No","User","RGN Test","ON","Yes",1150,NA,NA,NA,NA,NA,NA,NA,NA
"A3SKEW89V5S0DI","Collector",1,191,"2016-03-07T17:18:00-08:00","4",1,"Stimuli/versionDstim.txt","Procedure/versionDproc.txt","Tetris",NA,"BAY LEAVES","","BAY LEAVES","OFF","NPLI_Cat_Recall",125,"seqrec","No","User","RGN Test","ON","No",950,NA,NA,NA,NA,NA,NA,NA,NA
"A3SKEW89V5S0DI","Collector",1,192,"2016-03-07T17:18:01-08:00","1",1,"Stimuli/versionDstim.txt","Procedure/versionDproc.txt","Tetris",NA,"AVENUE","","AVENUE","OFF","LI_Unrel_Recall",213,"seqrec","No","User","RGN Test","ON","No",450,NA,NA,NA,NA,NA,NA,NA,NA
"A3SKEW89V5S0DI","Collector",1,193,"2016-03-07T17:18:03-08:00","2",1,"Stimuli/versionDstim.txt","Procedure/versionDproc.txt","Tetris",NA,"BRISKET","","BRISKET","OFF","CI_Unrel_Recall",298,"seqrec","No","User","RGN Test","ON","No",690,NA,NA,NA,NA,NA,NA,NA,NA
"A3SKEW89V5S0DI","Collector",1,194,"2016-03-07T17:18:05-08:00","2",1,"Stimuli/versionDstim.txt","Procedure/versionDproc.txt","Tetris",NA,"HARVEST","","HARVEST","OFF","NPLI_Unrel_Recall",150,"seqrec","No","User","RGN Test","ON","No",630,NA,NA,NA,NA,NA,NA,NA,NA
"A3SKEW89V5S0DI","Collector",1,195,"2016-03-07T17:18:06-08:00","1",1,"Stimuli/versionDstim.txt","Procedure/versionDproc.txt","Tetris",NA,"LOCKS","","LOCKS","OFF","CI_AdHoc_Recall",283,"seqrec","No","User","RGN Test","ON","No",480,NA,NA,NA,NA,NA,NA,NA,NA
"A3SKEW89V5S0DI","Collector",1,196,"2016-03-07T17:18:08-08:00","2",1,"Stimuli/versionDstim.txt","Procedure/versionDproc.txt","Tetris",NA,"CURRY","","CURRY","OFF","NPLI_Cat_Recall",126,"seqrec","No","User","RGN Test","ON","No",450,NA,NA,NA,NA,NA,NA,NA,NA
"A3SKEW89V5S0DI","Collector",1,197,"2016-03-07T17:18:10-08:00","2",1,"Stimuli/versionDstim.txt","Procedure/versionDproc.txt","Tetris",NA,"INFANT","","INFANT","OFF","NPLI_Unrel_Recall",155,"seqrec","No","User","RGN Test","ON","No",410,NA,NA,NA,NA,NA,NA,NA,NA
"A3SKEW89V5S0DI","Collector",1,198,"2016-03-07T17:18:11-08:00","1",1,"Stimuli/versionDstim.txt","Procedure/versionDproc.txt","Tetris",NA,"RAZOR","","RAZOR","OFF","CI_AdHoc_Recall",281,"seqrec","No","User","RGN Test","ON","No",310,NA,NA,NA,NA,NA,NA,NA,NA
"A3SKEW89V5S0DI","Collector",1,199,"2016-03-07T17:18:14-08:00","3",1,"Stimuli/versionDstim.txt","Procedure/versionDproc.txt","Tetris",NA,"BARN","","BARN","OFF","NPLI_AdHoc_Recall",181,"seqrec","No","User","RGN Test","ON","No",1010,NA,NA,NA,NA,NA,NA,NA,NA
"A3SKEW89V5S0DI","Collector",1,200,"2016-03-07T17:18:15-08:00","1",1,"Stimuli/versionDstim.txt","Procedure/versionDproc.txt","Tetris",NA,"JUMPSUIT","","JUMPSUIT","OFF","CI_AdHoc_Recall",284,"seqrec","No","User","RGN Test","ON","No",470,NA,NA,NA,NA,NA,NA,NA,NA
"A3SKEW89V5S0DI","Collector",1,201,"2016-03-07T17:18:17-08:00","2",1,"Stimuli/versionDstim.txt","Procedure/versionDproc.txt","Tetris",NA,"OREGANO","","OREGANO","OFF","NPLI_Cat_Recall",123,"seqrec","No","User","RGN Test","ON","No",490,NA,NA,NA,NA,NA,NA,NA,NA
"A3SKEW89V5S0DI","Collector",1,202,"2016-03-07T17:18:19-08:00","2",1,"Stimuli/versionDstim.txt","Procedure/versionDproc.txt","Tetris",NA,"KEROSENE","","KEROSENE","OFF","NPLI_Unrel_Recall",156,"seqrec","No","User","RGN Test","ON","No",430,NA,NA,NA,NA,NA,NA,NA,NA
"A3SKEW89V5S0DI","Collector",1,203,"2016-03-07T17:18:20-08:00","1",1,"Stimuli/versionDstim.txt","Procedure/versionDproc.txt","Tetris",NA,"HERMIT","","HERMIT","OFF","NPLI_Unrel_Recall",146,"seqrec","No","User","RGN Test","ON","No",390,NA,NA,NA,NA,NA,NA,NA,NA
"A3SKEW89V5S0DI","Collector",1,204,"2016-03-07T17:18:22-08:00","2",1,"Stimuli/versionDstim.txt","Procedure/versionDproc.txt","Tetris",NA,"CABIN","","CABIN","OFF","CI_Cat_Recall",291,"seqrec","No","User","RGN Test","ON","No",710,NA,NA,NA,NA,NA,NA,NA,NA
"A3SKEW89V5S0DI","Collector",1,205,"2016-03-07T17:18:24-08:00","2",1,"Stimuli/versionDstim.txt","Procedure/versionDproc.txt","Tetris",NA,"SATIN","","SATIN","OFF","NPCI_Cat_Recall",206,"seqrec","No","User","RGN Test","ON","No",520,NA,NA,NA,NA,NA,NA,NA,NA
"A3SKEW89V5S0DI","Collector",1,206,"2016-03-07T17:18:26-08:00","2",1,"Stimuli/versionDstim.txt","Procedure/versionDproc.txt","Tetris",NA,"FINGERPRINTS","","FINGERPRINTS","OFF","LI_AdHoc_Recall",233,"seqrec","No","User","RGN Test","ON","Yes",1260,NA,NA,NA,NA,NA,NA,NA,NA
"A3SKEW89V5S0DI","Collector",1,207,"2016-03-07T17:18:30-08:00","4",1,"Stimuli/versionDstim.txt","Procedure/versionDproc.txt","Tetris",NA,"HUT","","HUT","OFF","CI_Cat_Recall",290,"seqrec","No","User","RGN Test","ON","No",1090,NA,NA,NA,NA,NA,NA,NA,NA
"A3SKEW89V5S0DI","Collector",1,208,"2016-03-07T17:18:34-08:00","4",1,"Stimuli/versionDstim.txt","Procedure/versionDproc.txt","Tetris",NA,"RAKE","","RAKE","OFF","CI_Cat_Recall",294,"seqrec","No","User","RGN Test","ON","No",2180,NA,NA,NA,NA,NA,NA,NA,NA
"A3SKEW89V5S0DI","Collector",1,209,"2016-03-07T17:18:36-08:00","2",1,"Stimuli/versionDstim.txt","Procedure/versionDproc.txt","Tetris",NA,"SLED","","SLED","OFF","NPLI_AdHoc_Recall",180,"seqrec","No","User","RGN Test","ON","No",660,NA,NA,NA,NA,NA,NA,NA,NA
"A3SKEW89V5S0DI","Collector",1,210,"2016-03-07T17:18:38-08:00","2",1,"Stimuli/versionDstim.txt","Procedure/versionDproc.txt","Tetris",NA,"TABLE","","TABLE","OFF","NPLI_AdHoc_Recall",172,"seqrec","No","User","RGN Test","ON","No",610,NA,NA,NA,NA,NA,NA,NA,NA
"A3SKEW89V5S0DI","Collector",1,211,"2016-03-07T17:18:40-08:00","2",1,"Stimuli/versionDstim.txt","Procedure/versionDproc.txt","Tetris",NA,"PLUNGER","","PLUNGER","OFF","LI_AdHoc_Recall",228,"seqrec","No","User","RGN Test","ON","No",490,NA,NA,NA,NA,NA,NA,NA,NA
"A3SKEW89V5S0DI","Collector",1,212,"2016-03-07T17:18:42-08:00","2",1,"Stimuli/versionDstim.txt","Procedure/versionDproc.txt","Tetris",NA,"WHIRLPOOL","","WHIRLPOOL","OFF","NPCI_Unrel_Recall",198,"seqrec","No","User","RGN Test","ON","Yes",1020,NA,NA,NA,NA,NA,NA,NA,NA
"A3SKEW89V5S0DI","Collector",1,213,"2016-03-07T17:18:44-08:00","2",1,"Stimuli/versionDstim.txt","Procedure/versionDproc.txt","Tetris",NA,"BLAZE","","BLAZE","OFF","LI_Unrel_Recall",220,"seqrec","No","User","RGN Test","ON","No",1180,NA,NA,NA,NA,NA,NA,NA,NA
"A3SKEW89V5S0DI","Collector",1,214,"2016-03-07T17:18:46-08:00","2",1,"Stimuli/versionDstim.txt","Procedure/versionDproc.txt","Tetris",NA,"PENCIL","","PENCIL","OFF","NPLI_AdHoc_Recall",174,"seqrec","No","User","RGN Test","ON","No",670,NA,NA,NA,NA,NA,NA,NA,NA
"A3SKEW89V5S0DI","Collector",1,215,"2016-03-07T17:18:49-08:00","3",1,"Stimuli/versionDstim.txt","Procedure/versionDproc.txt","Tetris",NA,"QUICHE","","QUICHE","OFF","NPLI_Unrel_Recall",152,"seqrec","No","User","RGN Test","ON","No",450,NA,NA,NA,NA,NA,NA,NA,NA
"A3SKEW89V5S0DI","Collector",1,216,"2016-03-07T17:18:50-08:00","1",1,"Stimuli/versionDstim.txt","Procedure/versionDproc.txt","Tetris",NA,"BUCKET","","BUCKET","OFF","LI_Cat_Recall",255,"seqrec","No","User","RGN Test","ON","No",310,NA,NA,NA,NA,NA,NA,NA,NA
"A3SKEW89V5S0DI","Collector",1,217,"2016-03-07T17:18:52-08:00","2",1,"Stimuli/versionDstim.txt","Procedure/versionDproc.txt","Tetris",NA,"NEEDLE","","NEEDLE","OFF","LI_AdHoc_Recall",240,"seqrec","No","User","RGN Test","ON","No",530,NA,NA,NA,NA,NA,NA,NA,NA
"A3SKEW89V5S0DI","Collector",1,218,"2016-03-07T17:18:54-08:00","2",1,"Stimuli/versionDstim.txt","Procedure/versionDproc.txt","Tetris",NA,"KNIGHT","","KNIGHT","OFF","NPCI_Unrel_Recall",197,"seqrec","No","User","RGN Test","ON","No",430,NA,NA,NA,NA,NA,NA,NA,NA
"A3SKEW89V5S0DI","Collector",1,219,"2016-03-07T17:18:55-08:00","1",1,"Stimuli/versionDstim.txt","Procedure/versionDproc.txt","Tetris",NA,"CREST","","CREST","OFF","NPLI_Unrel_Recall",159,"seqrec","No","User","RGN Test","ON","No",340,NA,NA,NA,NA,NA,NA,NA,NA
"A3SKEW89V5S0DI","Collector",1,220,"2016-03-07T17:18:57-08:00","2",1,"Stimuli/versionDstim.txt","Procedure/versionDproc.txt","Tetris",NA,"CHILI POWDER","","CHILI POWDER","OFF","NPLI_Cat_Recall",129,"seqrec","No","User","RGN Test","ON","No",500,NA,NA,NA,NA,NA,NA,NA,NA
"A3SKEW89V5S0DI","Collector",1,221,"2016-03-07T17:19:00-08:00","3",1,"Stimuli/versionDstim.txt","Procedure/versionDproc.txt","Tetris",NA,"SCALE","","SCALE","OFF","LI_AdHoc_Recall",222,"seqrec","No","User","RGN Test","ON","Yes",1600,NA,NA,NA,NA,NA,NA,NA,NA
"A3SKEW89V5S0DI","Collector",1,222,"2016-03-07T17:19:02-08:00","2",1,"Stimuli/versionDstim.txt","Procedure/versionDproc.txt","Tetris",NA,"PLANTER","","PLANTER","OFF","LI_Cat_Recall",257,"seqrec","No","User","RGN Test","ON","No",1000,NA,NA,NA,NA,NA,NA,NA,NA
"A3SKEW89V5S0DI","Collector",1,223,"2016-03-07T17:19:04-08:00","2",1,"Stimuli/versionDstim.txt","Procedure/versionDproc.txt","Tetris",NA,"ONION SALT","","ONION SALT","OFF","NPLI_Cat_Recall",124,"seqrec","No","User","RGN Test","ON","No",500,NA,NA,NA,NA,NA,NA,NA,NA
"A3SKEW89V5S0DI","Collector",1,224,"2016-03-07T17:19:07-08:00","3",1,"Stimuli/versionDstim.txt","Procedure/versionDproc.txt","Tetris",NA,"BENCH","","BENCH","OFF","NPLI_AdHoc_Recall",178,"seqrec","No","User","RGN Test","ON","No",1010,NA,NA,NA,NA,NA,NA,NA,NA
"A3SKEW89V5S0DI","Collector",1,225,"2016-03-07T17:19:10-08:00","3",1,"Stimuli/versionDstim.txt","Procedure/versionDproc.txt","Tetris",NA,"WOOL","","WOOL","OFF","NPCI_Cat_Recall",202,"seqrec","No","User","RGN Test","ON","No",790,NA,NA,NA,NA,NA,NA,NA,NA
"A3SKEW89V5S0DI","Collector",1,226,"2016-03-07T17:19:13-08:00","3",1,"Stimuli/versionDstim.txt","Procedure/versionDproc.txt","Tetris",NA,"DENTIST","","DENTIST","OFF","NPLI_Unrel_Recall",161,"seqrec","No","User","RGN Test","ON","No",1220,NA,NA,NA,NA,NA,NA,NA,NA
"A3SKEW89V5S0DI","Collector",1,227,"2016-03-07T17:19:16-08:00","3",1,"Stimuli/versionDstim.txt","Procedure/versionDproc.txt","Tetris",NA,"HAZE","","HAZE","OFF","NPCI_Unrel_Recall",195,"seqrec","No","User","RGN Test","ON","No",500,NA,NA,NA,NA,NA,NA,NA,NA
"A3SKEW89V5S0DI","Collector",1,228,"2016-03-07T17:19:20-08:00","4",1,"Stimuli/versionDstim.txt","Procedure/versionDproc.txt","Tetris",NA,"PLOW","","PLOW","OFF","LI_Cat_Recall",253,"seqrec","No","User","RGN Test","ON","Yes",1270,NA,NA,NA,NA,NA,NA,NA,NA
"A3SKEW89V5S0DI","Collector",1,229,"2016-03-07T17:19:21-08:00","1",1,"Stimuli/versionDstim.txt","Procedure/versionDproc.txt","Tetris",NA,"PLANET","","PLANET","OFF","NPCI_AdHoc_Recall",188,"seqrec","No","User","RGN Test","ON","No",480,NA,NA,NA,NA,NA,NA,NA,NA
"A3SKEW89V5S0DI","Collector",1,230,"2016-03-07T17:19:23-08:00","2",1,"Stimuli/versionDstim.txt","Procedure/versionDproc.txt","Tetris",NA,"CIMINAL","","CIMINAL","OFF","CI_AdHoc_Recall",285,"seqrec","No","User","RGN Test","ON","No",330,NA,NA,NA,NA,NA,NA,NA,NA
"A3SKEW89V5S0DI","Collector",1,231,"2016-03-07T17:19:24-08:00","1",1,"Stimuli/versionDstim.txt","Procedure/versionDproc.txt","Tetris",NA,"DIARY","","DIARY","OFF","CI_Unrel_Recall",300,"seqrec","No","User","RGN Test","ON","No",250,NA,NA,NA,NA,NA,NA,NA,NA
"A3SKEW89V5S0DI","Collector",1,232,"2016-03-07T17:19:26-08:00","2",1,"Stimuli/versionDstim.txt","Procedure/versionDproc.txt","Tetris",NA,"FILTER","","FILTER","OFF","NPCI_Unrel_Recall",199,"seqrec","No","User","RGN Test","ON","No",260,NA,NA,NA,NA,NA,NA,NA,NA
"A3SKEW89V5S0DI","Collector",1,233,"2016-03-07T17:19:28-08:00","2",1,"Stimuli/versionDstim.txt","Procedure/versionDproc.txt","Tetris",NA,"BASEBALL BAT","","BASEBALL BAT","OFF","NPLI_AdHoc_Recall",177,"seqrec","No","User","RGN Test","ON","No",640,NA,NA,NA,NA,NA,NA,NA,NA
"A3SKEW89V5S0DI","Collector",1,234,"2016-03-07T17:19:30-08:00","2",1,"Stimuli/versionDstim.txt","Procedure/versionDproc.txt","Tetris",NA,"SPRINKLER","","SPRINKLER","OFF","LI_Cat_Recall",256,"seqrec","No","User","RGN Test","ON","Yes",1120,NA,NA,NA,NA,NA,NA,NA,NA
"A3SKEW89V5S0DI","Collector",1,235,"2016-03-07T17:19:32-08:00","2",1,"Stimuli/versionDstim.txt","Procedure/versionDproc.txt","Tetris",NA,"BLOSSOM","","BLOSSOM","OFF","NPLI_Unrel_Recall",153,"seqrec","No","User","RGN Test","ON","No",860,NA,NA,NA,NA,NA,NA,NA,NA
"A3SKEW89V5S0DI","Collector",1,236,"2016-03-07T17:19:33-08:00","1",1,"Stimuli/versionDstim.txt","Procedure/versionDproc.txt","Tetris",NA,"ALPACA","","ALPACA","OFF","NPLI_Cat_Recall",170,"seqrec","No","User","RGN Test","ON","No",310,NA,NA,NA,NA,NA,NA,NA,NA
"A3SKEW89V5S0DI","Collector",1,237,"2016-03-07T17:19:36-08:00","3",1,"Stimuli/versionDstim.txt","Procedure/versionDproc.txt","Tetris",NA,"SHOVEL","","SHOVEL","OFF","CI_Cat_Recall",292,"seqrec","No","User","RGN Test","ON","Yes",1230,NA,NA,NA,NA,NA,NA,NA,NA
"A3SKEW89V5S0DI","Collector",1,238,"2016-03-07T17:19:38-08:00","2",1,"Stimuli/versionDstim.txt","Procedure/versionDproc.txt","Tetris",NA,"ISSUE","","ISSUE","OFF","CI_Unrel_Recall",274,"seqrec","No","User","RGN Test","ON","No",480,NA,NA,NA,NA,NA,NA,NA,NA
"A3SKEW89V5S0DI","Collector",1,239,"2016-03-07T17:19:40-08:00","2",1,"Stimuli/versionDstim.txt","Procedure/versionDproc.txt","Tetris",NA,"TOILET","","TOILET","OFF","CI_AdHoc_Recall",278,"seqrec","No","User","RGN Test","ON","No",340,NA,NA,NA,NA,NA,NA,NA,NA
"A3SKEW89V5S0DI","Collector",1,240,"2016-03-07T17:19:42-08:00","2",1,"Stimuli/versionDstim.txt","Procedure/versionDproc.txt","Tetris",NA,"FOOTHILL","","FOOTHILL","OFF","CI_Unrel_Recall",297,"seqrec","No","User","RGN Test","ON","No",380,NA,NA,NA,NA,NA,NA,NA,NA
"A3SKEW89V5S0DI","Collector",1,241,"2016-03-07T17:19:45-08:00","3",1,"Stimuli/versionDstim.txt","Procedure/versionDproc.txt","Tetris",NA,"PAPRIKA","","PAPRIKA","OFF","NPCI_Cat_Recall",184,"seqrec","No","User","RGN Test","ON","No",300,NA,NA,NA,NA,NA,NA,NA,NA
"A3SKEW89V5S0DI","Collector",1,242,"2016-03-07T17:19:47-08:00","2",1,"Stimuli/versionDstim.txt","Procedure/versionDproc.txt","Tetris",NA,"HOE","","HOE","OFF","CI_Cat_Recall",293,"seqrec","No","User","RGN Test","ON","No",540,NA,NA,NA,NA,NA,NA,NA,NA
"A3SKEW89V5S0DI","Collector",1,243,"2016-03-07T17:19:49-08:00","2",1,"Stimuli/versionDstim.txt","Procedure/versionDproc.txt","Tetris",NA,"GLOVE","","GLOVE","OFF","CI_Cat_Recall",295,"seqrec","No","User","RGN Test","ON","No",560,NA,NA,NA,NA,NA,NA,NA,NA
"A3SKEW89V5S0DI","Collector",1,244,"2016-03-07T17:19:51-08:00","2",1,"Stimuli/versionDstim.txt","Procedure/versionDproc.txt","Tetris",NA,"WIZARD","","WIZARD","OFF","LI_Unrel_Recall",264,"seqrec","No","User","RGN Test","ON","Yes",1070,NA,NA,NA,NA,NA,NA,NA,NA
"A3SKEW89V5S0DI","Collector",1,245,"2016-03-07T17:19:53-08:00","2",1,"Stimuli/versionDstim.txt","Procedure/versionDproc.txt","Tetris",NA,"TILE","","TILE","OFF","LI_AdHoc_Recall",223,"seqrec","No","User","RGN Test","ON","Yes",1230,NA,NA,NA,NA,NA,NA,NA,NA
"A3SKEW89V5S0DI","Collector",1,246,"2016-03-07T17:19:55-08:00","2",1,"Stimuli/versionDstim.txt","Procedure/versionDproc.txt","Tetris",NA,"POLYESTER","","POLYESTER","OFF","NPLI_Cat_Recall",167,"seqrec","No","User","RGN Test","ON","No",480,NA,NA,NA,NA,NA,NA,NA,NA
"A3SKEW89V5S0DI","Collector",1,247,"2016-03-07T17:19:57-08:00","2",1,"Stimuli/versionDstim.txt","Procedure/versionDproc.txt","Tetris",NA,"TENT","","TENT","OFF","CI_Cat_Recall",288,"seqrec","No","User","RGN Test","ON","No",450,NA,NA,NA,NA,NA,NA,NA,NA
"A3SKEW89V5S0DI","Collector",1,248,"2016-03-07T17:19:58-08:00","1",1,"Stimuli/versionDstim.txt","Procedure/versionDproc.txt","Tetris",NA,"ROTOR","","ROTOR","OFF","NPCI_AdHoc_Recall",191,"seqrec","No","User","RGN Test","ON","No",330,NA,NA,NA,NA,NA,NA,NA,NA
"A3SKEW89V5S0DI","Collector",1,249,"2016-03-07T17:20:00-08:00","2",1,"Stimuli/versionDstim.txt","Procedure/versionDproc.txt","Tetris",NA,"LANTERN","","LANTERN","OFF","NPLI_Unrel_Recall",143,"seqrec","No","User","RGN Test","ON","No",260,NA,NA,NA,NA,NA,NA,NA,NA
"A3SKEW89V5S0DI","Collector",1,250,"2016-03-07T17:20:01-08:00","1",1,"Stimuli/versionDstim.txt","Procedure/versionDproc.txt","Tetris",NA,"BRUSH","","BRUSH","OFF","LI_AdHoc_Recall",225,"seqrec","No","User","RGN Test","ON","No",260,NA,NA,NA,NA,NA,NA,NA,NA
"A3SKEW89V5S0DI","Collector",1,251,"2016-03-07T17:20:03-08:00","2",1,"Stimuli/versionDstim.txt","Procedure/versionDproc.txt","Tetris",NA,"CELERY SEED","","CELERY SEED","OFF","NPLI_Cat_Recall",130,"seqrec","No","User","RGN Test","ON","No",350,NA,NA,NA,NA,NA,NA,NA,NA
"A3SKEW89V5S0DI","Collector",1,252,"2016-03-07T17:20:04-08:00","1",1,"Stimuli/versionDstim.txt","Procedure/versionDproc.txt","Tetris",NA,"DAY","","DAY","OFF","LI_Unrel_Recall",265,"seqrec","No","User","RGN Test","ON","No",320,NA,NA,NA,NA,NA,NA,NA,NA
"A3SKEW89V5S0DI","Collector",1,253,"2016-03-07T17:20:09-08:00","5",1,"Stimuli/versionDstim.txt","Procedure/versionDproc.txt","Tetris",NA,"FAN","","FAN","OFF","NPCI_AdHoc_Recall",187,"seqrec","No","User","RGN Test","ON","No",390,NA,NA,NA,NA,NA,NA,NA,NA
"A3SKEW89V5S0DI","Collector",1,254,"2016-03-07T17:20:11-08:00","2",1,"Stimuli/versionDstim.txt","Procedure/versionDproc.txt","Tetris",NA,"PALACE","","PALACE","OFF","LI_Cat_Recall",250,"seqrec","No","User","RGN Test","ON","No",680,NA,NA,NA,NA,NA,NA,NA,NA
"A3SKEW89V5S0DI","Collector",1,255,"2016-03-07T17:20:13-08:00","2",1,"Stimuli/versionDstim.txt","Procedure/versionDproc.txt","Tetris",NA,"JAR","","JAR","OFF","LI_Unrel_Recall",216,"seqrec","No","User","RGN Test","ON","No",530,NA,NA,NA,NA,NA,NA,NA,NA
"A3SKEW89V5S0DI","Collector",1,256,"2016-03-07T17:20:16-08:00","3",1,"Stimuli/versionDstim.txt","Procedure/versionDproc.txt","Tetris",NA,"ADMIRAL","","ADMIRAL","OFF","NPCI_Unrel_Recall",192,"seqrec","No","User","RGN Test","ON","No",2460,NA,NA,NA,NA,NA,NA,NA,NA
"A3SKEW89V5S0DI","Collector",1,257,"2016-03-07T17:20:18-08:00","2",1,"Stimuli/versionDstim.txt","Procedure/versionDproc.txt","Tetris",NA,"LEATHER","","LEATHER","OFF","NPCI_Cat_Recall",205,"seqrec","No","User","RGN Test","ON","No",1030,NA,NA,NA,NA,NA,NA,NA,NA
"A3SKEW89V5S0DI","Collector",1,258,"2016-03-07T17:20:20-08:00","2",1,"Stimuli/versionDstim.txt","Procedure/versionDproc.txt","Tetris",NA,"YO-YO","","YO-YO","OFF","NPLI_AdHoc_Recall",141,"seqrec","No","User","RGN Test","ON","No",490,NA,NA,NA,NA,NA,NA,NA,NA
"A3SKEW89V5S0DI","Collector",1,259,"2016-03-07T17:20:23-08:00","3",1,"Stimuli/versionDstim.txt","Procedure/versionDproc.txt","Tetris",NA,"CHEESECAKE","","CHEESECAKE","OFF","CI_Unrel_Recall",273,"seqrec","No","User","RGN Test","ON","No",470,NA,NA,NA,NA,NA,NA,NA,NA
"A3SKEW89V5S0DI","Collector",1,260,"2016-03-07T17:20:25-08:00","2",1,"Stimuli/versionDstim.txt","Procedure/versionDproc.txt","Tetris",NA,"TEPEE","","TEPEE","OFF","LI_Cat_Recall",246,"seqrec","No","User","RGN Test","ON","No",520,NA,NA,NA,NA,NA,NA,NA,NA
"A3SKEW89V5S0DI","Collector",1,261,"2016-03-07T17:20:27-08:00","2",1,"Stimuli/versionDstim.txt","Procedure/versionDproc.txt","Tetris",NA,"TURMERIC","","TURMERIC","OFF","NPLI_Cat_Recall",131,"seqrec","No","User","RGN Test","ON","No",610,NA,NA,NA,NA,NA,NA,NA,NA
"A3SKEW89V5S0DI","Collector",1,262,"2016-03-07T17:20:28-08:00","1",1,"Stimuli/versionDstim.txt","Procedure/versionDproc.txt","Tetris",NA,"RAYON","","RAYON","OFF","NPCI_Cat_Recall",203,"seqrec","No","User","RGN Test","ON","No",530,NA,NA,NA,NA,NA,NA,NA,NA
"A3SKEW89V5S0DI","Collector",1,263,"2016-03-07T17:20:30-08:00","2",1,"Stimuli/versionDstim.txt","Procedure/versionDproc.txt","Tetris",NA,"MUSTARD","","MUSTARD","OFF","NPCI_Cat_Recall",185,"seqrec","No","User","RGN Test","ON","No",690,NA,NA,NA,NA,NA,NA,NA,NA
"A3SKEW89V5S0DI","Collector",1,264,"2016-03-07T17:20:33-08:00","3",1,"Stimuli/versionDstim.txt","Procedure/versionDproc.txt","Tetris",NA,"DREIDEL","","DREIDEL","OFF","NPLI_AdHoc_Recall",133,"seqrec","No","User","RGN Test","ON","No",580,NA,NA,NA,NA,NA,NA,NA,NA
"A3SKEW89V5S0DI","Collector",1,265,"2016-03-07T17:20:37-08:00","4",1,"Stimuli/versionDstim.txt","Procedure/versionDproc.txt","Tetris",NA,"VANITY","","VANITY","OFF","LI_AdHoc_Recall",229,"seqrec","No","User","RGN Test","ON","No",510,NA,NA,NA,NA,NA,NA,NA,NA
"A3SKEW89V5S0DI","Collector",1,266,"2016-03-07T17:20:39-08:00","2",1,"Stimuli/versionDstim.txt","Procedure/versionDproc.txt","Tetris",NA,"ORPHAN","","ORPHAN","OFF","NPLI_Unrel_Recall",148,"seqrec","No","User","RGN Test","ON","No",420,NA,NA,NA,NA,NA,NA,NA,NA
"A3SKEW89V5S0DI","Collector",1,267,"2016-03-07T17:20:41-08:00","2",1,"Stimuli/versionDstim.txt","Procedure/versionDproc.txt","Tetris",NA,"DESK","","DESK","OFF","NPLI_AdHoc_Recall",175,"seqrec","No","User","RGN Test","ON","No",1100,NA,NA,NA,NA,NA,NA,NA,NA
"A3SKEW89V5S0DI","Collector",1,268,"2016-03-07T17:20:43-08:00","2",1,"Stimuli/versionDstim.txt","Procedure/versionDproc.txt","Tetris",NA,"VAPOR","","VAPOR","OFF","NPLI_Unrel_Recall",158,"seqrec","No","User","RGN Test","ON","No",540,NA,NA,NA,NA,NA,NA,NA,NA
"A3SKEW89V5S0DI","Collector",1,269,"2016-03-07T17:20:45-08:00","2",1,"Stimuli/versionDstim.txt","Procedure/versionDproc.txt","Tetris",NA,"SALT","","SALT","OFF","NPCI_Cat_Recall",186,"seqrec","No","User","RGN Test","ON","No",450,NA,NA,NA,NA,NA,NA,NA,NA
"A3SKEW89V5S0DI","Collector",1,270,"2016-03-07T17:20:46-08:00","1",1,"Stimuli/versionDstim.txt","Procedure/versionDproc.txt","Tetris",NA,"ARCH","","ARCH","OFF","CI_Unrel_Recall",299,"seqrec","No","User","RGN Test","ON","No",540,NA,NA,NA,NA,NA,NA,NA,NA
"A3SKEW89V5S0DI","Collector",1,271,"2016-03-07T17:20:48-08:00","2",1,"Stimuli/versionDstim.txt","Procedure/versionDproc.txt","Tetris",NA,"STICK","","STICK","OFF","NPCI_AdHoc_Recall",208,"seqrec","No","User","RGN Test","ON","No",340,NA,NA,NA,NA,NA,NA,NA,NA
"A3SKEW89V5S0DI","Collector",1,272,"2016-03-07T17:20:49-08:00","1",1,"Stimuli/versionDstim.txt","Procedure/versionDproc.txt","Tetris",NA,"CANTEEN","","CANTEEN","OFF","NPLI_Unrel_Recall",151,"seqrec","No","User","RGN Test","ON","No",410,NA,NA,NA,NA,NA,NA,NA,NA
"A3SKEW89V5S0DI","Collector",1,273,"2016-03-07T17:20:51-08:00","2",1,"Stimuli/versionDstim.txt","Procedure/versionDproc.txt","Tetris",NA,"FLURRY","","FLURRY","OFF","LI_Unrel_Recall",214,"seqrec","No","User","RGN Test","ON","No",370,NA,NA,NA,NA,NA,NA,NA,NA
"A3SKEW89V5S0DI","Collector",1,274,"2016-03-07T17:20:52-08:00","1",1,"Stimuli/versionDstim.txt","Procedure/versionDproc.txt","Tetris",NA,"BARRACKS","","BARRACKS","OFF","LI_Cat_Recall",251,"seqrec","No","User","RGN Test","ON","No",310,NA,NA,NA,NA,NA,NA,NA,NA
"A3SKEW89V5S0DI","Collector",1,275,"2016-03-07T17:20:55-08:00","3",1,"Stimuli/versionDstim.txt","Procedure/versionDproc.txt","Tetris",NA,"BROTH","","BROTH","OFF","LI_Unrel_Recall",268,"seqrec","No","User","RGN Test","ON","Yes",1160,NA,NA,NA,NA,NA,NA,NA,NA
"A3SKEW89V5S0DI","Collector",1,276,"2016-03-07T17:20:57-08:00","2",1,"Stimuli/versionDstim.txt","Procedure/versionDproc.txt","Tetris",NA,"FLANNEL","","FLANNEL","OFF","NPLI_Cat_Recall",165,"seqrec","No","User","RGN Test","ON","No",1330,NA,NA,NA,NA,NA,NA,NA,NA
"A3SKEW89V5S0DI","Collector",1,277,"2016-03-07T17:20:59-08:00","2",1,"Stimuli/versionDstim.txt","Procedure/versionDproc.txt","Tetris",NA,"VALVE","","VALVE","OFF","NPLI_Unrel_Recall",154,"seqrec","No","User","RGN Test","ON","No",510,NA,NA,NA,NA,NA,NA,NA,NA
"A3SKEW89V5S0DI","Collector",1,278,"2016-03-07T17:21:00-08:00","1",1,"Stimuli/versionDstim.txt","Procedure/versionDproc.txt","Tetris",NA,"DENIUM","","DENIUM","OFF","NPLI_Cat_Recall",164,"seqrec","No","User","RGN Test","ON","No",280,NA,NA,NA,NA,NA,NA,NA,NA
"A3SKEW89V5S0DI","Collector",1,279,"2016-03-07T17:21:02-08:00","2",1,"Stimuli/versionDstim.txt","Procedure/versionDproc.txt","Tetris",NA,"GENE","","GENE","OFF","NPCI_Unrel_Recall",201,"seqrec","No","User","RGN Test","ON","No",690,NA,NA,NA,NA,NA,NA,NA,NA
"A3SKEW89V5S0DI","Collector",1,280,"2016-03-07T17:21:04-08:00","2",1,"Stimuli/versionDstim.txt","Procedure/versionDproc.txt","Tetris",NA,"CLASS","","CLASS","OFF","LI_Unrel_Recall",270,"seqrec","No","User","RGN Test","ON","No",280,NA,NA,NA,NA,NA,NA,NA,NA
"A3SKEW89V5S0DI","Collector",1,281,"2016-03-07T17:21:05-08:00","1",1,"Stimuli/versionDstim.txt","Procedure/versionDproc.txt","Tetris",NA,"DOOR","","DOOR","OFF","NPLI_AdHoc_Recall",173,"seqrec","No","User","RGN Test","ON","No",520,NA,NA,NA,NA,NA,NA,NA,NA
"A3SKEW89V5S0DI","Collector",1,282,"2016-03-07T17:21:07-08:00","2",1,"Stimuli/versionDstim.txt","Procedure/versionDproc.txt","Tetris",NA,"HAYSTACK","","HAYSTACK","OFF","NPCI_Unrel_Recall",194,"seqrec","No","User","RGN Test","ON","No",790,NA,NA,NA,NA,NA,NA,NA,NA
"A3SKEW89V5S0DI","Collector",1,283,"2016-03-07T17:21:09-08:00","2",1,"Stimuli/versionDstim.txt","Procedure/versionDproc.txt","Tetris",NA,"LINEN","","LINEN","OFF","NPLI_Cat_Recall",162,"seqrec","No","User","RGN Test","ON","No",600,NA,NA,NA,NA,NA,NA,NA,NA
"A3SKEW89V5S0DI","Collector",1,284,"2016-03-07T17:21:12-08:00","3",1,"Stimuli/versionDstim.txt","Procedure/versionDproc.txt","Tetris",NA,"SIEVE","","SIEVE","OFF","LI_Cat_Recall",261,"seqrec","No","User","RGN Test","ON","Yes",1800,NA,NA,NA,NA,NA,NA,NA,NA
"A3SKEW89V5S0DI","Collector",1,285,"2016-03-07T17:21:15-08:00","3",1,"Stimuli/versionDstim.txt","Procedure/versionDproc.txt","Tetris",NA,"LASER","","LASER","OFF","LI_Unrel_Recall",271,"seqrec","No","User","RGN Test","ON","No",1670,NA,NA,NA,NA,NA,NA,NA,NA
"A3SKEW89V5S0DI","Collector",1,286,"2016-03-07T17:21:17-08:00","2",1,"Stimuli/versionDstim.txt","Procedure/versionDproc.txt","Tetris",NA,"CEREAL","","CEREAL","OFF","LI_Unrel_Recall",218,"seqrec","No","User","RGN Test","ON","No",480,NA,NA,NA,NA,NA,NA,NA,NA
"A3SKEW89V5S0DI","Collector",1,287,"2016-03-07T17:21:18-08:00","1",1,"Stimuli/versionDstim.txt","Procedure/versionDproc.txt","Tetris",NA,"WINDMILL","","WINDMILL","OFF","NPLI_AdHoc_Recall",140,"seqrec","No","User","RGN Test","ON","No",310,NA,NA,NA,NA,NA,NA,NA,NA
"A3SKEW89V5S0DI","Collector",1,288,"2016-03-07T17:21:21-08:00","3",1,"Stimuli/versionDstim.txt","Procedure/versionDproc.txt","Tetris",NA,"SHACK","","SHACK","OFF","LI_Cat_Recall",243,"seqrec","No","User","RGN Test","ON","No",1320,NA,NA,NA,NA,NA,NA,NA,NA
"A3SKEW89V5S0DI","Collector",1,289,"2016-03-07T17:21:22-08:00","1",1,"Stimuli/versionDstim.txt","Procedure/versionDproc.txt","Tetris",NA,"SPHERE","","SPHERE","OFF","NPLI_AdHoc_Recall",134,"seqrec","No","User","RGN Test","ON","No",350,NA,NA,NA,NA,NA,NA,NA,NA
"A3SKEW89V5S0DI","Collector",1,290,"2016-03-07T17:21:26-08:00","4",1,"Stimuli/versionDstim.txt","Procedure/versionDproc.txt","Tetris",NA,"COTTAGE","","COTTAGE","OFF","LI_Cat_Recall",244,"seqrec","No","User","RGN Test","ON","Yes",1020,NA,NA,NA,NA,NA,NA,NA,NA
"A3SKEW89V5S0DI","Collector",1,291,"2016-03-07T17:21:28-08:00","2",1,"Stimuli/versionDstim.txt","Procedure/versionDproc.txt","Tetris",NA,"STAIRS","","STAIRS","OFF","NPLI_AdHoc_Recall",179,"seqrec","No","User","RGN Test","ON","No",570,NA,NA,NA,NA,NA,NA,NA,NA
"A3SKEW89V5S0DI","Collector",1,292,"2016-03-07T17:21:30-08:00","2",1,"Stimuli/versionDstim.txt","Procedure/versionDproc.txt","Tetris",NA,"ZIGZAG","","ZIGZAG","OFF","CI_Unrel_Recall",272,"seqrec","No","User","RGN Test","ON","No",190,NA,NA,NA,NA,NA,NA,NA,NA
"A3SKEW89V5S0DI","Collector",1,293,"2016-03-07T17:21:32-08:00","2",1,"Stimuli/versionDstim.txt","Procedure/versionDproc.txt","Tetris",NA,"IGLOO","","IGLOO","OFF","LI_Cat_Recall",245,"seqrec","No","User","RGN Test","ON","No",230,NA,NA,NA,NA,NA,NA,NA,NA
"A3SKEW89V5S0DI","Collector",1,294,"2016-03-07T17:21:35-08:00","3",1,"Stimuli/versionDstim.txt","Procedure/versionDproc.txt","Tetris",NA,"LACE","","LACE","OFF","NPLI_Cat_Recall",169,"seqrec","No","User","RGN Test","ON","No",610,NA,NA,NA,NA,NA,NA,NA,NA
"A3SKEW89V5S0DI","Collector",1,295,"2016-03-07T17:21:37-08:00","2",1,"Stimuli/versionDstim.txt","Procedure/versionDproc.txt","Tetris",NA,"DEODORANT","","DEODORANT","OFF","LI_AdHoc_Recall",226,"seqrec","No","User","RGN Test","ON","No",510,NA,NA,NA,NA,NA,NA,NA,NA
"A3SKEW89V5S0DI","Collector",1,296,"2016-03-07T17:21:40-08:00","3",1,"Stimuli/versionDstim.txt","Procedure/versionDproc.txt","Tetris",NA,"DETOUR","","DETOUR","OFF","LI_Unrel_Recall",212,"seqrec","No","User","RGN Test","ON","No",550,NA,NA,NA,NA,NA,NA,NA,NA
"A3SKEW89V5S0DI","Collector",1,297,"2016-03-07T17:21:42-08:00","2",1,"Stimuli/versionDstim.txt","Procedure/versionDproc.txt","Tetris",NA,"CELL","","CELL","OFF","LI_AdHoc_Recall",232,"seqrec","No","User","RGN Test","ON","Yes",1230,NA,NA,NA,NA,NA,NA,NA,NA
"A3SKEW89V5S0DI","Collector",1,298,"2016-03-07T17:21:44-08:00","2",1,"Stimuli/versionDstim.txt","Procedure/versionDproc.txt","Tetris",NA,"TOOTHBRUSH","","TOOTHBRUSH","OFF","CI_AdHoc_Recall",279,"seqrec","No","User","RGN Test","ON","No",870,NA,NA,NA,NA,NA,NA,NA,NA
"A3SKEW89V5S0DI","Collector",1,299,"2016-03-07T17:21:46-08:00","2",1,"Stimuli/versionDstim.txt","Procedure/versionDproc.txt","Tetris",NA,"WINNER","","WINNER","OFF","LI_Unrel_Recall",221,"seqrec","No","User","RGN Test","ON","No",520,NA,NA,NA,NA,NA,NA,NA,NA
"A3SKEW89V5S0DI","Collector",1,300,"2016-03-07T17:21:48-08:00","2",1,"Stimuli/versionDstim.txt","Procedure/versionDproc.txt","Tetris",NA,"TERRY","","TERRY","OFF","NPLI_Cat_Recall",166,"seqrec","No","User","RGN Test","ON","No",580,NA,NA,NA,NA,NA,NA,NA,NA
"A3SKEW89V5S0DI","Collector",1,301,"2016-03-07T17:21:50-08:00","2",1,"Stimuli/versionDstim.txt","Procedure/versionDproc.txt","Tetris",NA,"FIGHTS","","FIGHTS","OFF","LI_AdHoc_Recall",238,"seqrec","No","User","RGN Test","ON","No",330,NA,NA,NA,NA,NA,NA,NA,NA
"A3SKEW89V5S0DI","Collector",1,302,"2016-03-07T17:21:51-08:00","1",1,"Stimuli/versionDstim.txt","Procedure/versionDproc.txt","Tetris",NA,"BUNKBED","","BUNKBED","OFF","LI_AdHoc_Recall",234,"seqrec","No","User","RGN Test","ON","No",220,NA,NA,NA,NA,NA,NA,NA,NA
"A3SKEW89V5S0DI","Collector",1,303,"2016-03-07T17:21:52-08:00","1",1,"Stimuli/versionDstim.txt","Procedure/versionDproc.txt","Tetris",NA,"GYROSCOPE","","GYROSCOPE","OFF","NPLI_AdHoc_Recall",136,"seqrec","No","User","RGN Test","ON","No",430,NA,NA,NA,NA,NA,NA,NA,NA
"A3SKEW89V5S0DI","Collector",1,304,"2016-03-07T17:21:54-08:00","2",1,"Stimuli/versionDstim.txt","Procedure/versionDproc.txt","Tetris",NA,"CINNAMON","","CINNAMON","OFF","NPCI_Cat_Recall",183,"seqrec","No","User","RGN Test","ON","No",270,NA,NA,NA,NA,NA,NA,NA,NA
"A3SKEW89V5S0DI","Collector",1,305,"2016-03-07T17:21:55-08:00","1",1,"Stimuli/versionDstim.txt","Procedure/versionDproc.txt","Tetris",NA,"TRAILER","","TRAILER","OFF","LI_Cat_Recall",242,"seqrec","No","User","RGN Test","ON","No",240,NA,NA,NA,NA,NA,NA,NA,NA
"A3SKEW89V5S0DI","Collector",1,306,"2016-03-07T17:21:57-08:00","2",1,"Stimuli/versionDstim.txt","Procedure/versionDproc.txt","Tetris",NA,"TRIMMER","","TRIMMER","OFF","LI_Cat_Recall",259,"seqrec","No","User","RGN Test","ON","No",340,NA,NA,NA,NA,NA,NA,NA,NA
"A3SKEW89V5S0DI","Collector",1,307,"2016-03-07T17:21:59-08:00","2",1,"Stimuli/versionDstim.txt","Procedure/versionDproc.txt","Tetris",NA,"HOUSEBOAT","","HOUSEBOAT","OFF","LI_Cat_Recall",247,"seqrec","No","User","RGN Test","ON","Yes",1100,NA,NA,NA,NA,NA,NA,NA,NA
"A3SKEW89V5S0DI","Collector",1,308,"2016-03-07T17:22:02-08:00","3",1,"Stimuli/versionDstim.txt","Procedure/versionDproc.txt","Tetris",NA,"WHALE","","WHALE","OFF","NPLI_Unrel_Recall",147,"seqrec","No","User","RGN Test","ON","No",1060,NA,NA,NA,NA,NA,NA,NA,NA
"A3SKEW89V5S0DI","Collector",1,309,"2016-03-07T17:22:04-08:00","2",1,"Stimuli/versionDstim.txt","Procedure/versionDproc.txt","Tetris",NA,"HANDCUFFS","","HANDCUFFS","OFF","CI_AdHoc_Recall",282,"seqrec","No","User","RGN Test","ON","No",630,NA,NA,NA,NA,NA,NA,NA,NA
"A3SKEW89V5S0DI","Collector",1,310,"2016-03-07T17:22:05-08:00","1",1,"Stimuli/versionDstim.txt","Procedure/versionDproc.txt","Tetris",NA,"SATELLITE","","SATELLITE","OFF","NPLI_AdHoc_Recall",132,"seqrec","No","User","RGN Test","ON","No",390,NA,NA,NA,NA,NA,NA,NA,NA
"A3SKEW89V5S0DI","Collector",1,311,"2016-03-07T17:22:07-08:00","2",1,"Stimuli/versionDstim.txt","Procedure/versionDproc.txt","Tetris",NA,"CLIPPERS","","CLIPPERS","OFF","LI_Cat_Recall",258,"seqrec","No","User","RGN Test","ON","No",360,NA,NA,NA,NA,NA,NA,NA,NA
"A3SKEW89V5S0DI","Collector",1,312,"2016-03-07T17:22:09-08:00","2",1,"Stimuli/versionDstim.txt","Procedure/versionDproc.txt","Tetris",NA,"SKATE","","SKATE","OFF","NPCI_AdHoc_Recall",189,"seqrec","No","User","RGN Test","ON","No",980,NA,NA,NA,NA,NA,NA,NA,NA
"A3SKEW89V5S0DI","Collector",1,313,"2016-03-07T17:22:11-08:00","2",1,"Stimuli/versionDstim.txt","Procedure/versionDproc.txt","Tetris",NA,"TOWER","","TOWER","OFF","LI_AdHoc_Recall",236,"seqrec","No","User","RGN Test","ON","No",650,NA,NA,NA,NA,NA,NA,NA,NA
"A3SKEW89V5S0DI","Collector",1,314,"2016-03-07T17:22:13-08:00","2",1,"Stimuli/versionDstim.txt","Procedure/versionDproc.txt","Tetris",NA,"CANDLE","","CANDLE","OFF","LI_AdHoc_Recall",231,"seqrec","No","User","RGN Test","ON","Yes",1040,NA,NA,NA,NA,NA,NA,NA,NA
"A3SKEW89V5S0DI","Collector",1,315,"2016-03-07T17:22:15-08:00","2",1,"Stimuli/versionDstim.txt","Procedure/versionDproc.txt","Tetris",NA,"LADDER","","LADDER","OFF","LI_Unrel_Recall",269,"seqrec","No","User","RGN Test","ON","No",770,NA,NA,NA,NA,NA,NA,NA,NA
"A3SKEW89V5S0DI","Collector",1,316,"2016-03-07T17:22:17-08:00","2",1,"Stimuli/versionDstim.txt","Procedure/versionDproc.txt","Tetris",NA,"ROSEMARY","","ROSEMARY","OFF","NPLI_Cat_Recall",127,"seqrec","No","User","RGN Test","ON","No",920,NA,NA,NA,NA,NA,NA,NA,NA
"A3SKEW89V5S0DI","Collector",1,317,"2016-03-07T17:22:19-08:00","2",1,"Stimuli/versionDstim.txt","Procedure/versionDproc.txt","Tetris",NA,"MEDICINE","","MEDICINE","OFF","LI_AdHoc_Recall",224,"seqrec","No","User","RGN Test","ON","No",540,NA,NA,NA,NA,NA,NA,NA,NA
"A3SKEW89V5S0DI","Collector",1,318,"2016-03-07T17:22:20-08:00","1",1,"Stimuli/versionDstim.txt","Procedure/versionDproc.txt","Tetris",NA,"CLOGS","","CLOGS","OFF","NPLI_AdHoc_Recall",176,"seqrec","No","User","RGN Test","ON","No",350,NA,NA,NA,NA,NA,NA,NA,NA
"A3SKEW89V5S0DI","Collector",1,319,"2016-03-07T17:22:22-08:00","2",1,"Stimuli/versionDstim.txt","Procedure/versionDproc.txt","Tetris",NA,"ACROBAT","","ACROBAT","OFF","NPCI_Unrel_Recall",200,"seqrec","No","User","RGN Test","ON","No",610,NA,NA,NA,NA,NA,NA,NA,NA
"A3SKEW89V5S0DI","Collector",1,320,"2016-03-07T17:22:24-08:00","2",1,"Stimuli/versionDstim.txt","Procedure/versionDproc.txt","Tetris",NA,"TORNADO","","TORNADO","OFF","NPLI_AdHoc_Recall",138,"seqrec","No","User","RGN Test","ON","No",500,NA,NA,NA,NA,NA,NA,NA,NA
"A3SKEW89V5S0DI","Collector",1,321,"2016-03-07T17:22:26-08:00","2",1,"Stimuli/versionDstim.txt","Procedure/versionDproc.txt","Tetris",NA,"n/a","n/a","n/a","n/a","n/a",0,"Instruct","N/A","User","Click the button below to continue.","OFF","",1320,NA,NA,NA,NA,NA,NA,NA,NA
"A3SKEW89V5S0DI","Collector",1,322,"2016-03-07T17:22:36-08:00","10",1,"Stimuli/versionDstim.txt","Procedure/versionDproc.txt","Tetris",NA,"n/a","n/a","n/a","n/a","n/a",0,"Instruct","N/A","User","You again will be presented with 6 lists of words, each containing 20 words, but now you will be presented with the list for a second time following each list. After each list is presented, the words will be presented to you again, but in a different order. Click the button below to begin the first list.","OFF","",8910,NA,NA,NA,NA,NA,NA,NA,NA
"A3SKEW89V5S0DI","Collector",1,323,"2016-03-07T17:22:40-08:00","4",1,"Stimuli/versionDstim.txt","Procedure/versionDproc.txt","Tetris",NA,"TOOTH","","TOOTH","OFF","Cat_Restudy_L1",317,"Study","No","3","Cat_Restudy_L1","ON","",3000,NA,NA,NA,NA,NA,NA,NA,NA
"A3SKEW89V5S0DI","Collector",1,324,"2016-03-07T17:22:45-08:00","5",1,"Stimuli/versionDstim.txt","Procedure/versionDproc.txt","Tetris",NA,"TONGUE","","TONGUE","OFF","Cat_Restudy_L1",321,"Study","No","3","Cat_Restudy_L1","ON","",3000,NA,NA,NA,NA,NA,NA,NA,NA
"A3SKEW89V5S0DI","Collector",1,325,"2016-03-07T17:22:49-08:00","4",1,"Stimuli/versionDstim.txt","Procedure/versionDproc.txt","Tetris",NA,"NECK","","NECK","OFF","Cat_Restudy_L1",310,"Study","No","3","Cat_Restudy_L1","ON","",3000,NA,NA,NA,NA,NA,NA,NA,NA
"A3SKEW89V5S0DI","Collector",1,326,"2016-03-07T17:22:54-08:00","5",1,"Stimuli/versionDstim.txt","Procedure/versionDproc.txt","Tetris",NA,"HEAD","","HEAD","OFF","Cat_Restudy_L1",303,"Study","No","3","Cat_Restudy_L1","ON","",3000,NA,NA,NA,NA,NA,NA,NA,NA
"A3SKEW89V5S0DI","Collector",1,327,"2016-03-07T17:22:58-08:00","4",1,"Stimuli/versionDstim.txt","Procedure/versionDproc.txt","Tetris",NA,"HAND","","HAND","OFF","Cat_Restudy_L1",306,"Study","No","3","Cat_Restudy_L1","ON","",3000,NA,NA,NA,NA,NA,NA,NA,NA
"A3SKEW89V5S0DI","Collector",1,328,"2016-03-07T17:23:02-08:00","4",1,"Stimuli/versionDstim.txt","Procedure/versionDproc.txt","Tetris",NA,"MOUTH","","MOUTH","OFF","Cat_Restudy_L1",307,"Study","No","3","Cat_Restudy_L1","ON","",3000,NA,NA,NA,NA,NA,NA,NA,NA
"A3SKEW89V5S0DI","Collector",1,329,"2016-03-07T17:23:07-08:00","5",1,"Stimuli/versionDstim.txt","Procedure/versionDproc.txt","Tetris",NA,"LUNGS","","LUNGS","OFF","Cat_Restudy_L1",316,"Study","No","3","Cat_Restudy_L1","ON","",3000,NA,NA,NA,NA,NA,NA,NA,NA
"A3SKEW89V5S0DI","Collector",1,330,"2016-03-07T17:23:11-08:00","4",1,"Stimuli/versionDstim.txt","Procedure/versionDproc.txt","Tetris",NA,"STOMACH","","STOMACH","OFF","Cat_Restudy_L1",308,"Study","No","3","Cat_Restudy_L1","ON","",3000,NA,NA,NA,NA,NA,NA,NA,NA
"A3SKEW89V5S0DI","Collector",1,331,"2016-03-07T17:23:15-08:00","4",1,"Stimuli/versionDstim.txt","Procedure/versionDproc.txt","Tetris",NA,"BRAIN","","BRAIN","OFF","Cat_Restudy_L1",315,"Study","No","3","Cat_Restudy_L1","ON","",3000,NA,NA,NA,NA,NA,NA,NA,NA
"A3SKEW89V5S0DI","Collector",1,332,"2016-03-07T17:23:19-08:00","4",1,"Stimuli/versionDstim.txt","Procedure/versionDproc.txt","Tetris",NA,"FACE","","FACE","OFF","Cat_Restudy_L1",320,"Study","No","3","Cat_Restudy_L1","ON","",3000,NA,NA,NA,NA,NA,NA,NA,NA
"A3SKEW89V5S0DI","Collector",1,333,"2016-03-07T17:23:24-08:00","5",1,"Stimuli/versionDstim.txt","Procedure/versionDproc.txt","Tetris",NA,"FOOT ","","FOOT ","OFF","Cat_Restudy_L1",304,"Study","No","3","Cat_Restudy_L1","ON","",3000,NA,NA,NA,NA,NA,NA,NA,NA
"A3SKEW89V5S0DI","Collector",1,334,"2016-03-07T17:23:28-08:00","4",1,"Stimuli/versionDstim.txt","Procedure/versionDproc.txt","Tetris",NA,"PELVIS","","PELVIS","OFF","Cat_Restudy_L1",313,"Study","No","3","Cat_Restudy_L1","ON","",3000,NA,NA,NA,NA,NA,NA,NA,NA
"A3SKEW89V5S0DI","Collector",1,335,"2016-03-07T17:23:32-08:00","4",1,"Stimuli/versionDstim.txt","Procedure/versionDproc.txt","Tetris",NA,"LEGS","","LEGS","OFF","Cat_Restudy_L1",302,"Study","No","3","Cat_Restudy_L1","ON","",3000,NA,NA,NA,NA,NA,NA,NA,NA
"A3SKEW89V5S0DI","Collector",1,336,"2016-03-07T17:23:36-08:00","4",1,"Stimuli/versionDstim.txt","Procedure/versionDproc.txt","Tetris",NA,"KNEE","","KNEE","OFF","Cat_Restudy_L1",312,"Study","No","3","Cat_Restudy_L1","ON","",3000,NA,NA,NA,NA,NA,NA,NA,NA
"A3SKEW89V5S0DI","Collector",1,337,"2016-03-07T17:23:41-08:00","5",1,"Stimuli/versionDstim.txt","Procedure/versionDproc.txt","Tetris",NA,"ELBOW","","ELBOW","OFF","Cat_Restudy_L1",318,"Study","No","3","Cat_Restudy_L1","ON","",3000,NA,NA,NA,NA,NA,NA,NA,NA
"A3SKEW89V5S0DI","Collector",1,338,"2016-03-07T17:23:45-08:00","4",1,"Stimuli/versionDstim.txt","Procedure/versionDproc.txt","Tetris",NA,"HEART","","HEART","OFF","Cat_Restudy_L1",311,"Study","No","3","Cat_Restudy_L1","ON","",3000,NA,NA,NA,NA,NA,NA,NA,NA
"A3SKEW89V5S0DI","Collector",1,339,"2016-03-07T17:23:49-08:00","4",1,"Stimuli/versionDstim.txt","Procedure/versionDproc.txt","Tetris",NA,"LIVER","","LIVER","OFF","Cat_Restudy_L1",314,"Study","No","3","Cat_Restudy_L1","ON","",3000,NA,NA,NA,NA,NA,NA,NA,NA
"A3SKEW89V5S0DI","Collector",1,340,"2016-03-07T17:23:53-08:00","4",1,"Stimuli/versionDstim.txt","Procedure/versionDproc.txt","Tetris",NA,"SHOULDERS","","SHOULDERS","OFF","Cat_Restudy_L1",319,"Study","No","3","Cat_Restudy_L1","ON","",3000,NA,NA,NA,NA,NA,NA,NA,NA
"A3SKEW89V5S0DI","Collector",1,341,"2016-03-07T17:23:57-08:00","4",1,"Stimuli/versionDstim.txt","Procedure/versionDproc.txt","Tetris",NA,"FINGER","","FINGER","OFF","Cat_Restudy_L1",305,"Study","No","3","Cat_Restudy_L1","ON","",3000,NA,NA,NA,NA,NA,NA,NA,NA
"A3SKEW89V5S0DI","Collector",1,342,"2016-03-07T17:24:02-08:00","5",1,"Stimuli/versionDstim.txt","Procedure/versionDproc.txt","Tetris",NA,"EYEBROW","","EYEBROW","OFF","Cat_Restudy_L1",309,"Study","No","3","Cat_Restudy_L1","ON","",3000,NA,NA,NA,NA,NA,NA,NA,NA
"A3SKEW89V5S0DI","Collector",1,343,"2016-03-07T17:24:06-08:00","4",1,"Stimuli/versionDstim.txt","Procedure/versionDproc.txt","Tetris",NA,"n/a","n/a","n/a","n/a","n/a",0,"Instruct","N/A","User","Restudy Instructions: You will now view this list again, but in a different order. Click the button below to begin.","OFF","",2930,NA,NA,NA,NA,NA,NA,NA,NA
"A3SKEW89V5S0DI","Collector",1,344,"2016-03-07T17:24:10-08:00","4",1,"Stimuli/versionDstim.txt","Procedure/versionDproc.txt","Tetris",NA,"FINGER","","FINGER","OFF","Cat_Restudy_L1",325,"Study","No","3","Cat_Restudy_L1","ON","",3000,NA,NA,NA,NA,NA,NA,NA,NA
"A3SKEW89V5S0DI","Collector",1,345,"2016-03-07T17:24:14-08:00","4",1,"Stimuli/versionDstim.txt","Procedure/versionDproc.txt","Tetris",NA,"SHOULDERS","","SHOULDERS","OFF","Cat_Restudy_L1",339,"Study","No","3","Cat_Restudy_L1","ON","",3000,NA,NA,NA,NA,NA,NA,NA,NA
"A3SKEW89V5S0DI","Collector",1,346,"2016-03-07T17:24:19-08:00","5",1,"Stimuli/versionDstim.txt","Procedure/versionDproc.txt","Tetris",NA,"LEGS","","LEGS","OFF","Cat_Restudy_L1",322,"Study","No","3","Cat_Restudy_L1","ON","",3000,NA,NA,NA,NA,NA,NA,NA,NA
"A3SKEW89V5S0DI","Collector",1,347,"2016-03-07T17:24:23-08:00","4",1,"Stimuli/versionDstim.txt","Procedure/versionDproc.txt","Tetris",NA,"LIVER","","LIVER","OFF","Cat_Restudy_L1",334,"Study","No","3","Cat_Restudy_L1","ON","",3000,NA,NA,NA,NA,NA,NA,NA,NA
"A3SKEW89V5S0DI","Collector",1,348,"2016-03-07T17:24:29-08:00","6",1,"Stimuli/versionDstim.txt","Procedure/versionDproc.txt","Tetris",NA,"HEART","","HEART","OFF","Cat_Restudy_L1",331,"Study","No","3","Cat_Restudy_L1","ON","",3000,NA,NA,NA,NA,NA,NA,NA,NA
"A3SKEW89V5S0DI","Collector",1,349,"2016-03-07T17:24:34-08:00","5",1,"Stimuli/versionDstim.txt","Procedure/versionDproc.txt","Tetris",NA,"HEAD","","HEAD","OFF","Cat_Restudy_L1",323,"Study","No","3","Cat_Restudy_L1","ON","",3000,NA,NA,NA,NA,NA,NA,NA,NA
"A3SKEW89V5S0DI","Collector",1,350,"2016-03-07T17:24:40-08:00","6",1,"Stimuli/versionDstim.txt","Procedure/versionDproc.txt","Tetris",NA,"EYEBROW","","EYEBROW","OFF","Cat_Restudy_L1",329,"Study","No","3","Cat_Restudy_L1","ON","",3000,NA,NA,NA,NA,NA,NA,NA,NA
"A3SKEW89V5S0DI","Collector",1,351,"2016-03-07T17:24:50-08:00","10",1,"Stimuli/versionDstim.txt","Procedure/versionDproc.txt","Tetris",NA,"TONGUE","","TONGUE","OFF","Cat_Restudy_L1",341,"Study","No","3","Cat_Restudy_L1","ON","",3000,NA,NA,NA,NA,NA,NA,NA,NA
"A3SKEW89V5S0DI","Collector",1,352,"2016-03-07T17:24:54-08:00","4",1,"Stimuli/versionDstim.txt","Procedure/versionDproc.txt","Tetris",NA,"LUNGS","","LUNGS","OFF","Cat_Restudy_L1",336,"Study","No","3","Cat_Restudy_L1","ON","",3000,NA,NA,NA,NA,NA,NA,NA,NA
"A3SKEW89V5S0DI","Collector",1,353,"2016-03-07T17:24:58-08:00","4",1,"Stimuli/versionDstim.txt","Procedure/versionDproc.txt","Tetris",NA,"MOUTH","","MOUTH","OFF","Cat_Restudy_L1",327,"Study","No","3","Cat_Restudy_L1","ON","",3000,NA,NA,NA,NA,NA,NA,NA,NA
"A3SKEW89V5S0DI","Collector",1,354,"2016-03-07T17:25:02-08:00","4",1,"Stimuli/versionDstim.txt","Procedure/versionDproc.txt","Tetris",NA,"TOOTH","","TOOTH","OFF","Cat_Restudy_L1",337,"Study","No","3","Cat_Restudy_L1","ON","",3000,NA,NA,NA,NA,NA,NA,NA,NA
"A3SKEW89V5S0DI","Collector",1,355,"2016-03-07T17:25:06-08:00","4",1,"Stimuli/versionDstim.txt","Procedure/versionDproc.txt","Tetris",NA,"HAND","","HAND","OFF","Cat_Restudy_L1",326,"Study","No","3","Cat_Restudy_L1","ON","",3000,NA,NA,NA,NA,NA,NA,NA,NA
"A3SKEW89V5S0DI","Collector",1,356,"2016-03-07T17:25:11-08:00","5",1,"Stimuli/versionDstim.txt","Procedure/versionDproc.txt","Tetris",NA,"FACE","","FACE","OFF","Cat_Restudy_L1",340,"Study","No","3","Cat_Restudy_L1","ON","",3000,NA,NA,NA,NA,NA,NA,NA,NA
"A3SKEW89V5S0DI","Collector",1,357,"2016-03-07T17:25:15-08:00","4",1,"Stimuli/versionDstim.txt","Procedure/versionDproc.txt","Tetris",NA,"BRAIN","","BRAIN","OFF","Cat_Restudy_L1",335,"Study","No","3","Cat_Restudy_L1","ON","",3000,NA,NA,NA,NA,NA,NA,NA,NA
"A3SKEW89V5S0DI","Collector",1,358,"2016-03-07T17:25:19-08:00","4",1,"Stimuli/versionDstim.txt","Procedure/versionDproc.txt","Tetris",NA,"KNEE","","KNEE","OFF","Cat_Restudy_L1",332,"Study","No","3","Cat_Restudy_L1","ON","",3000,NA,NA,NA,NA,NA,NA,NA,NA
"A3SKEW89V5S0DI","Collector",1,359,"2016-03-07T17:25:23-08:00","4",1,"Stimuli/versionDstim.txt","Procedure/versionDproc.txt","Tetris",NA,"FOOT ","","FOOT ","OFF","Cat_Restudy_L1",324,"Study","No","3","Cat_Restudy_L1","ON","",3000,NA,NA,NA,NA,NA,NA,NA,NA
"A3SKEW89V5S0DI","Collector",1,360,"2016-03-07T17:25:27-08:00","4",1,"Stimuli/versionDstim.txt","Procedure/versionDproc.txt","Tetris",NA,"NECK","","NECK","OFF","Cat_Restudy_L1",330,"Study","No","3","Cat_Restudy_L1","ON","",3000,NA,NA,NA,NA,NA,NA,NA,NA
"A3SKEW89V5S0DI","Collector",1,361,"2016-03-07T17:25:32-08:00","5",1,"Stimuli/versionDstim.txt","Procedure/versionDproc.txt","Tetris",NA,"ELBOW","","ELBOW","OFF","Cat_Restudy_L1",338,"Study","No","3","Cat_Restudy_L1","ON","",3000,NA,NA,NA,NA,NA,NA,NA,NA
"A3SKEW89V5S0DI","Collector",1,362,"2016-03-07T17:25:36-08:00","4",1,"Stimuli/versionDstim.txt","Procedure/versionDproc.txt","Tetris",NA,"STOMACH","","STOMACH","OFF","Cat_Restudy_L1",328,"Study","No","3","Cat_Restudy_L1","ON","",3000,NA,NA,NA,NA,NA,NA,NA,NA
"A3SKEW89V5S0DI","Collector",1,363,"2016-03-07T17:25:41-08:00","5",1,"Stimuli/versionDstim.txt","Procedure/versionDproc.txt","Tetris",NA,"PELVIS","","PELVIS","OFF","Cat_Restudy_L1",333,"Study","No","3","Cat_Restudy_L1","ON","",3000,NA,NA,NA,NA,NA,NA,NA,NA
"A3SKEW89V5S0DI","Collector",1,364,"2016-03-07T17:25:45-08:00","4",1,"Stimuli/versionDstim.txt","Procedure/versionDproc.txt","Tetris",NA,"n/a","n/a","n/a","n/a","n/a",0,"Instruct","N/A","User","Click the button below for a new list.","OFF","",2540,NA,NA,NA,NA,NA,NA,NA,NA
"A3SKEW89V5S0DI","Collector",1,365,"2016-03-07T17:25:49-08:00","4",1,"Stimuli/versionDstim.txt","Procedure/versionDproc.txt","Tetris",NA,"LIPSTICK","","LIPSTICK","OFF","AdHoc_Restudy_L2",346,"Study","No","3","AdHoc_Restudy_L2","ON","",3000,NA,NA,NA,NA,NA,NA,NA,NA
"A3SKEW89V5S0DI","Collector",1,366,"2016-03-07T17:25:53-08:00","4",1,"Stimuli/versionDstim.txt","Procedure/versionDproc.txt","Tetris",NA,"PEARLS","","PEARLS","OFF","AdHoc_Restudy_L2",359,"Study","No","3","AdHoc_Restudy_L2","ON","",3000,NA,NA,NA,NA,NA,NA,NA,NA
"A3SKEW89V5S0DI","Collector",1,367,"2016-03-07T17:25:58-08:00","5",1,"Stimuli/versionDstim.txt","Procedure/versionDproc.txt","Tetris",NA,"VEIL","","VEIL","OFF","AdHoc_Restudy_L2",354,"Study","No","3","AdHoc_Restudy_L2","ON","",3000,NA,NA,NA,NA,NA,NA,NA,NA
"A3SKEW89V5S0DI","Collector",1,368,"2016-03-07T17:26:02-08:00","4",1,"Stimuli/versionDstim.txt","Procedure/versionDproc.txt","Tetris",NA,"SHIRT","","SHIRT","OFF","AdHoc_Restudy_L2",349,"Study","No","3","AdHoc_Restudy_L2","ON","",3000,NA,NA,NA,NA,NA,NA,NA,NA
"A3SKEW89V5S0DI","Collector",1,369,"2016-03-07T17:26:07-08:00","5",1,"Stimuli/versionDstim.txt","Procedure/versionDproc.txt","Tetris",NA,"RING","","RING","OFF","AdHoc_Restudy_L2",350,"Study","No","3","AdHoc_Restudy_L2","ON","",3000,NA,NA,NA,NA,NA,NA,NA,NA
"A3SKEW89V5S0DI","Collector",1,370,"2016-03-07T17:26:11-08:00","4",1,"Stimuli/versionDstim.txt","Procedure/versionDproc.txt","Tetris",NA,"DIAMONDS","","DIAMONDS","OFF","AdHoc_Restudy_L2",351,"Study","No","3","AdHoc_Restudy_L2","ON","",3000,NA,NA,NA,NA,NA,NA,NA,NA
"A3SKEW89V5S0DI","Collector",1,371,"2016-03-07T17:26:15-08:00","4",1,"Stimuli/versionDstim.txt","Procedure/versionDproc.txt","Tetris",NA,"HEADBAND","","HEADBAND","OFF","AdHoc_Restudy_L2",344,"Study","No","3","AdHoc_Restudy_L2","ON","",3000,NA,NA,NA,NA,NA,NA,NA,NA
"A3SKEW89V5S0DI","Collector",1,372,"2016-03-07T17:26:19-08:00","4",1,"Stimuli/versionDstim.txt","Procedure/versionDproc.txt","Tetris",NA,"BROOCH","","BROOCH","OFF","AdHoc_Restudy_L2",361,"Study","No","3","AdHoc_Restudy_L2","ON","",3000,NA,NA,NA,NA,NA,NA,NA,NA
"A3SKEW89V5S0DI","Collector",1,373,"2016-03-07T17:26:24-08:00","5",1,"Stimuli/versionDstim.txt","Procedure/versionDproc.txt","Tetris",NA,"GOWN","","GOWN","OFF","AdHoc_Restudy_L2",355,"Study","No","3","AdHoc_Restudy_L2","ON","",3000,NA,NA,NA,NA,NA,NA,NA,NA
"A3SKEW89V5S0DI","Collector",1,374,"2016-03-07T17:26:30-08:00","6",1,"Stimuli/versionDstim.txt","Procedure/versionDproc.txt","Tetris",NA,"SCARF","","SCARF","OFF","AdHoc_Restudy_L2",342,"Study","No","3","AdHoc_Restudy_L2","ON","",3000,NA,NA,NA,NA,NA,NA,NA,NA
"A3SKEW89V5S0DI","Collector",1,375,"2016-03-07T17:26:36-08:00","6",1,"Stimuli/versionDstim.txt","Procedure/versionDproc.txt","Tetris",NA,"BOBBY PIN","","BOBBY PIN","OFF","AdHoc_Restudy_L2",356,"Study","No","3","AdHoc_Restudy_L2","ON","",3000,NA,NA,NA,NA,NA,NA,NA,NA
