*Username	*ExperimentName	*Session	*Trial	*Date	*TimeDif	*Condition Number	*Stimuli File	*Order File	*Condition Description	*Condition Notes	Stimuli*Target	Stimuli*Cue	Stimuli*Answer	Stimuli*Shuffle	Stimuli*Stimuli Notes	Procedure*Item	Procedure*Trial Type	Procedure*Post Trial	Procedure*Timing	Procedure*Procedure Notes	Procedure*Shuffle	Response*Response1	Response*RT	Response*RTkey	Response*RTlast	Response*strictAcc	Response*lenientAcc	Response*Accuracy	Response*JOL	Response*postRT	Response*postRTkey
A1GXFMAC759VRM	Collector	1	1	2016-03-05T13:47:04-08:00	-	1	Stimuli/versionBstim.txt	Procedure/versionBproc.txt	Tetris		n/a	n/a	n/a	n/a	n/a	0	Instruct	N/A	User	Click the button below for the first list.	Off		2110								
A1GXFMAC759VRM	Collector	1	2	2016-03-05T13:47:08-08:00	4	1	Stimuli/versionBstim.txt	Procedure/versionBproc.txt	Tetris		TEARS		TEARS	OFF	AdHoc_G_L1	6	Study	No	3	AdHoc_G_L1	ON		3000								
A1GXFMAC759VRM	Collector	1	3	2016-03-05T13:47:13-08:00	5	1	Stimuli/versionBstim.txt	Procedure/versionBproc.txt	Tetris		CIDER		CIDER	OFF	AdHoc_G_L1	2	Study	No	3	AdHoc_G_L1	ON		3000								
A1GXFMAC759VRM	Collector	1	4	2016-03-05T13:47:17-08:00	4	1	Stimuli/versionBstim.txt	Procedure/versionBproc.txt	Tetris		MERCURY		MERCURY	OFF	AdHoc_G_L1	5	Study	No	3	AdHoc_G_L1	ON		3000								
A1GXFMAC759VRM	Collector	1	5	2016-03-05T13:47:21-08:00	4	1	Stimuli/versionBstim.txt	Procedure/versionBproc.txt	Tetris		CREAM		CREAM	OFF	AdHoc_G_L1	21	Study	No	3	AdHoc_G_L1	ON		3000								
A1GXFMAC759VRM	Collector	1	6	2016-03-05T13:47:25-08:00	4	1	Stimuli/versionBstim.txt	Procedure/versionBproc.txt	Tetris		BLOOD		BLOOD	OFF	AdHoc_G_L1	18	Study	No	3	AdHoc_G_L1	ON		3000								
A1GXFMAC759VRM	Collector	1	7	2016-03-05T13:47:30-08:00	5	1	Stimuli/versionBstim.txt	Procedure/versionBproc.txt	Tetris		LAKE		LAKE	OFF	AdHoc_G_L1	13	Study	No	3	AdHoc_G_L1	ON		3000								
A1GXFMAC759VRM	Collector	1	8	2016-03-05T13:47:34-08:00	4	1	Stimuli/versionBstim.txt	Procedure/versionBproc.txt	Tetris		ALCOHOL		ALCOHOL	OFF	AdHoc_G_L1	10	Study	No	3	AdHoc_G_L1	ON		3000								
A1GXFMAC759VRM	Collector	1	9	2016-03-05T13:47:38-08:00	4	1	Stimuli/versionBstim.txt	Procedure/versionBproc.txt	Tetris		WINE		WINE	OFF	AdHoc_G_L1	9	Study	No	3	AdHoc_G_L1	ON		3000								
A1GXFMAC759VRM	Collector	1	10	2016-03-05T13:47:42-08:00	4	1	Stimuli/versionBstim.txt	Procedure/versionBproc.txt	Tetris		VINEGAR		VINEGAR	OFF	AdHoc_G_L1	19	Study	No	3	AdHoc_G_L1	ON		3000								
A1GXFMAC759VRM	Collector	1	11	2016-03-05T13:47:47-08:00	5	1	Stimuli/versionBstim.txt	Procedure/versionBproc.txt	Tetris		TEA		TEA	OFF	AdHoc_G_L1	4	Study	No	3	AdHoc_G_L1	ON		3000								
A1GXFMAC759VRM	Collector	1	12	2016-03-05T13:47:51-08:00	4	1	Stimuli/versionBstim.txt	Procedure/versionBproc.txt	Tetris		SYRUP		SYRUP	OFF	AdHoc_G_L1	20	Study	No	3	AdHoc_G_L1	ON		3000								
A1GXFMAC759VRM	Collector	1	13	2016-03-05T13:47:55-08:00	4	1	Stimuli/versionBstim.txt	Procedure/versionBproc.txt	Tetris		RIVER		RIVER	OFF	AdHoc_G_L1	14	Study	No	3	AdHoc_G_L1	ON		3000								
A1GXFMAC759VRM	Collector	1	14	2016-03-05T13:48:00-08:00	5	1	Stimuli/versionBstim.txt	Procedure/versionBproc.txt	Tetris		SOUP		SOUP	OFF	AdHoc_G_L1	16	Study	No	3	AdHoc_G_L1	ON		3000								
A1GXFMAC759VRM	Collector	1	15	2016-03-05T13:48:04-08:00	4	1	Stimuli/versionBstim.txt	Procedure/versionBproc.txt	Tetris		BEER		BEER	OFF	AdHoc_G_L1	8	Study	No	3	AdHoc_G_L1	ON		3000								
A1GXFMAC759VRM	Collector	1	16	2016-03-05T13:48:08-08:00	4	1	Stimuli/versionBstim.txt	Procedure/versionBproc.txt	Tetris		OCEAN		OCEAN	OFF	AdHoc_G_L1	12	Study	No	3	AdHoc_G_L1	ON		3000								
A1GXFMAC759VRM	Collector	1	17	2016-03-05T13:48:13-08:00	5	1	Stimuli/versionBstim.txt	Procedure/versionBproc.txt	Tetris		LAVA		LAVA	OFF	AdHoc_G_L1	15	Study	No	3	AdHoc_G_L1	ON		3000								
A1GXFMAC759VRM	Collector	1	18	2016-03-05T13:48:19-08:00	6	1	Stimuli/versionBstim.txt	Procedure/versionBproc.txt	Tetris		SWEAT		SWEAT	OFF	AdHoc_G_L1	7	Study	No	3	AdHoc_G_L1	ON		3000								
A1GXFMAC759VRM	Collector	1	19	2016-03-05T13:48:25-08:00	6	1	Stimuli/versionBstim.txt	Procedure/versionBproc.txt	Tetris		GASOLINE		GASOLINE	OFF	AdHoc_G_L1	17	Study	No	3	AdHoc_G_L1	ON		3000								
A1GXFMAC759VRM	Collector	1	20	2016-03-05T13:48:30-08:00	5	1	Stimuli/versionBstim.txt	Procedure/versionBproc.txt	Tetris		HOT CHOCOLATE		HOT CHOCOLATE	OFF	AdHoc_G_L1	11	Study	No	3	AdHoc_G_L1	ON		3000								
A1GXFMAC759VRM	Collector	1	21	2016-03-05T13:48:34-08:00	4	1	Stimuli/versionBstim.txt	Procedure/versionBproc.txt	Tetris		SODA		SODA	OFF	AdHoc_G_L1	3	Study	No	3	AdHoc_G_L1	ON		3000								
A1GXFMAC759VRM	Collector	1	22	2016-03-05T13:48:41-08:00	7	1	Stimuli/versionBstim.txt	Procedure/versionBproc.txt	Tetris		n/a	n/a	n/a	n/a	n/a	0	Instruct	N/A	User	Guess Instructions: 5 words related to the list you just saw were not presented. Try to guess these words by typing them into the dialog box on the next screen. You must guess at least one.	OFF		6410								
A1GXFMAC759VRM	Collector	1	23	2016-03-05T13:49:07-08:00	26	1	Stimuli/versionBstim.txt	Procedure/versionBproc.txt	Tetris		n/a	n/a	n/a	n/a	n/a	0	freerecall	N/A	User	Guess Below. You must make at least one guess. Click submit when you are finished.	OFF	Milk, Sugar, Salt, Lake, Volcano	24070	2620	12170						
A1GXFMAC759VRM	Collector	1	24	2016-03-05T13:49:11-08:00	4	1	Stimuli/versionBstim.txt	Procedure/versionBproc.txt	Tetris		n/a	n/a	n/a	n/a	n/a	0	Instruct	N/A	User	Click the button below for the next list.	OFF		3110								
A1GXFMAC759VRM	Collector	1	25	2016-03-05T13:49:17-08:00	6	1	Stimuli/versionBstim.txt	Procedure/versionBproc.txt	Tetris		ASPARAGUS		ASPARAGUS	OFF	Cat_G_L2	25	Study	No	3	Cat_G_L2	ON		3000								
A1GXFMAC759VRM	Collector	1	26	2016-03-05T13:49:21-08:00	4	1	Stimuli/versionBstim.txt	Procedure/versionBproc.txt	Tetris		STRING BEANS		STRING BEANS	OFF	Cat_G_L2	28	Study	No	3	Cat_G_L2	ON		3000								
A1GXFMAC759VRM	Collector	1	27	2016-03-05T13:49:25-08:00	4	1	Stimuli/versionBstim.txt	Procedure/versionBproc.txt	Tetris		CELERY		CELERY	OFF	Cat_G_L2	26	Study	No	3	Cat_G_L2	ON		3000								
A1GXFMAC759VRM	Collector	1	28	2016-03-05T13:49:29-08:00	4	1	Stimuli/versionBstim.txt	Procedure/versionBproc.txt	Tetris		ONION		ONION	OFF	Cat_G_L2	33	Study	No	3	Cat_G_L2	ON		3000								
A1GXFMAC759VRM	Collector	1	29	2016-03-05T13:49:34-08:00	5	1	Stimuli/versionBstim.txt	Procedure/versionBproc.txt	Tetris		OKRA		OKRA	OFF	Cat_G_L2	40	Study	No	3	Cat_G_L2	ON		3000								
A1GXFMAC759VRM	Collector	1	30	2016-03-05T13:49:42-08:00	8	1	Stimuli/versionBstim.txt	Procedure/versionBproc.txt	Tetris		ZUCCHINI		ZUCCHINI	OFF	Cat_G_L2	38	Study	No	3	Cat_G_L2	ON		3000								
A1GXFMAC759VRM	Collector	1	31	2016-03-05T13:49:46-08:00	4	1	Stimuli/versionBstim.txt	Procedure/versionBproc.txt	Tetris		LETTUCE		LETTUCE	OFF	Cat_G_L2	24	Study	No	3	Cat_G_L2	ON		3000								
A1GXFMAC759VRM	Collector	1	32	2016-03-05T13:49:51-08:00	5	1	Stimuli/versionBstim.txt	Procedure/versionBproc.txt	Tetris		CAULIFLOWER		CAULIFLOWER	OFF	Cat_G_L2	29	Study	No	3	Cat_G_L2	ON		3000								
A1GXFMAC759VRM	Collector	1	33	2016-03-05T13:49:55-08:00	4	1	Stimuli/versionBstim.txt	Procedure/versionBproc.txt	Tetris		RADISH		RADISH	OFF	Cat_G_L2	34	Study	No	3	Cat_G_L2	ON		3000								
A1GXFMAC759VRM	Collector	1	34	2016-03-05T13:50:01-08:00	6	1	Stimuli/versionBstim.txt	Procedure/versionBproc.txt	Tetris		PEPPERS		PEPPERS	OFF	Cat_G_L2	37	Study	No	3	Cat_G_L2	ON		3000								
A1GXFMAC759VRM	Collector	1	35	2016-03-05T13:50:05-08:00	4	1	Stimuli/versionBstim.txt	Procedure/versionBproc.txt	Tetris		EGGPLANT		EGGPLANT	OFF	Cat_G_L2	41	Study	No	3	Cat_G_L2	ON		3000								
A1GXFMAC759VRM	Collector	1	36	2016-03-05T13:50:09-08:00	4	1	Stimuli/versionBstim.txt	Procedure/versionBproc.txt	Tetris		LIMA BEANS		LIMA BEANS	OFF	Cat_G_L2	31	Study	No	3	Cat_G_L2	ON		3000								
A1GXFMAC759VRM	Collector	1	37	2016-03-05T13:50:15-08:00	6	1	Stimuli/versionBstim.txt	Procedure/versionBproc.txt	Tetris		PUMPKIN		PUMPKIN	OFF	Cat_G_L2	39	Study	No	3	Cat_G_L2	ON		3000								
A1GXFMAC759VRM	Collector	1	38	2016-03-05T13:50:19-08:00	4	1	Stimuli/versionBstim.txt	Procedure/versionBproc.txt	Tetris		CORN		CORN	OFF	Cat_G_L2	22	Study	No	3	Cat_G_L2	ON		3000								
A1GXFMAC759VRM	Collector	1	39	2016-03-05T13:50:24-08:00	5	1	Stimuli/versionBstim.txt	Procedure/versionBproc.txt	Tetris		POTATO		POTATO	OFF	Cat_G_L2	23	Study	No	3	Cat_G_L2	ON		3000								
A1GXFMAC759VRM	Collector	1	40	2016-03-05T13:50:28-08:00	4	1	Stimuli/versionBstim.txt	Procedure/versionBproc.txt	Tetris		BEETS		BEETS	OFF	Cat_G_L2	30	Study	No	3	Cat_G_L2	ON		3000								
A1GXFMAC759VRM	Collector	1	41	2016-03-05T13:50:33-08:00	5	1	Stimuli/versionBstim.txt	Procedure/versionBproc.txt	Tetris		CABBAGE		CABBAGE	OFF	Cat_G_L2	27	Study	No	3	Cat_G_L2	ON		3000								
A1GXFMAC759VRM	Collector	1	42	2016-03-05T13:50:37-08:00	4	1	Stimuli/versionBstim.txt	Procedure/versionBproc.txt	Tetris		TURNIP		TURNIP	OFF	Cat_G_L2	35	Study	No	3	Cat_G_L2	ON		3000								
A1GXFMAC759VRM	Collector	1	43	2016-03-05T13:50:41-08:00	4	1	Stimuli/versionBstim.txt	Procedure/versionBproc.txt	Tetris		KALE		KALE	OFF	Cat_G_L2	36	Study	No	3	Cat_G_L2	ON		3000								
A1GXFMAC759VRM	Collector	1	44	2016-03-05T13:50:45-08:00	4	1	Stimuli/versionBstim.txt	Procedure/versionBproc.txt	Tetris		SQUASH		SQUASH	OFF	Cat_G_L2	32	Study	No	3	Cat_G_L2	ON		3000								
A1GXFMAC759VRM	Collector	1	45	2016-03-05T13:50:49-08:00	4	1	Stimuli/versionBstim.txt	Procedure/versionBproc.txt	Tetris		n/a	n/a	n/a	n/a	n/a	0	Instruct	N/A	User	Guess Instructions: 5 words related to the list you just saw were not presented. Try to guess these words by typing them into the dialog box on the next screen. You must guess at least one.	OFF		2720								
A1GXFMAC759VRM	Collector	1	46	2016-03-05T13:52:26-08:00	97	1	Stimuli/versionBstim.txt	Procedure/versionBproc.txt	Tetris		n/a	n/a	n/a	n/a	n/a	0	freerecall	N/A	User	Guess Below. You must make at least one guess. Click submit when you are finished.	OFF	Broccoli, Cucumber, Carrot, Artichoke, Heart of Palm	95180	1480	50390						
A1GXFMAC759VRM	Collector	1	47	2016-03-05T13:52:29-08:00	3	1	Stimuli/versionBstim.txt	Procedure/versionBproc.txt	Tetris		n/a	n/a	n/a	n/a	n/a	0	Instruct	N/A	User	Click the button below for the next list.	OFF		2140								
A1GXFMAC759VRM	Collector	1	48	2016-03-05T13:52:34-08:00	5	1	Stimuli/versionBstim.txt	Procedure/versionBproc.txt	Tetris		REPTILE		REPTILE	OFF	Unrel_G_L3	61	Study	No	3	Unrel_G_L3	ON		3000								
A1GXFMAC759VRM	Collector	1	49	2016-03-05T13:52:38-08:00	4	1	Stimuli/versionBstim.txt	Procedure/versionBproc.txt	Tetris		FANG		FANG	OFF	Unrel_G_L3	46	Study	No	3	Unrel_G_L3	ON		3000								
A1GXFMAC759VRM	Collector	1	50	2016-03-05T13:52:43-08:00	5	1	Stimuli/versionBstim.txt	Procedure/versionBproc.txt	Tetris		THERMOMETER		THERMOMETER	OFF	Unrel_G_L3	58	Study	No	3	Unrel_G_L3	ON		3000								
A1GXFMAC759VRM	Collector	1	51	2016-03-05T13:52:47-08:00	4	1	Stimuli/versionBstim.txt	Procedure/versionBproc.txt	Tetris		GOAL		GOAL	OFF	Unrel_G_L3	54	Study	No	3	Unrel_G_L3	ON		3000								
A1GXFMAC759VRM	Collector	1	52	2016-03-05T13:52:52-08:00	5	1	Stimuli/versionBstim.txt	Procedure/versionBproc.txt	Tetris		INCENSE		INCENSE	OFF	Unrel_G_L3	59	Study	No	3	Unrel_G_L3	ON		3000								
A1GXFMAC759VRM	Collector	1	53	2016-03-05T13:52:56-08:00	4	1	Stimuli/versionBstim.txt	Procedure/versionBproc.txt	Tetris		SPIKE		SPIKE	OFF	Unrel_G_L3	47	Study	No	3	Unrel_G_L3	ON		3000								
A1GXFMAC759VRM	Collector	1	54	2016-03-05T13:53:00-08:00	4	1	Stimuli/versionBstim.txt	Procedure/versionBproc.txt	Tetris		DOME		DOME	OFF	Unrel_G_L3	49	Study	No	3	Unrel_G_L3	ON		3000								
A1GXFMAC759VRM	Collector	1	55	2016-03-05T13:53:04-08:00	4	1	Stimuli/versionBstim.txt	Procedure/versionBproc.txt	Tetris		NOODLE		NOODLE	OFF	Unrel_G_L3	48	Study	No	3	Unrel_G_L3	ON		3000								
A1GXFMAC759VRM	Collector	1	56	2016-03-05T13:53:08-08:00	4	1	Stimuli/versionBstim.txt	Procedure/versionBproc.txt	Tetris		SCOUT		SCOUT	OFF	Unrel_G_L3	51	Study	No	3	Unrel_G_L3	ON		3000								
A1GXFMAC759VRM	Collector	1	57	2016-03-05T13:53:13-08:00	5	1	Stimuli/versionBstim.txt	Procedure/versionBproc.txt	Tetris		TEE		TEE	OFF	Unrel_G_L3	43	Study	No	3	Unrel_G_L3	ON		3000								
A1GXFMAC759VRM	Collector	1	58	2016-03-05T13:53:17-08:00	4	1	Stimuli/versionBstim.txt	Procedure/versionBproc.txt	Tetris		PAPERCLIP		PAPERCLIP	OFF	Unrel_G_L3	57	Study	No	3	Unrel_G_L3	ON		3000								
A1GXFMAC759VRM	Collector	1	59	2016-03-05T13:53:21-08:00	4	1	Stimuli/versionBstim.txt	Procedure/versionBproc.txt	Tetris		CANISTER		CANISTER	OFF	Unrel_G_L3	55	Study	No	3	Unrel_G_L3	ON		3000								
A1GXFMAC759VRM	Collector	1	60	2016-03-05T13:53:26-08:00	5	1	Stimuli/versionBstim.txt	Procedure/versionBproc.txt	Tetris		ZOO		ZOO	OFF	Unrel_G_L3	56	Study	No	3	Unrel_G_L3	ON		3000								
A1GXFMAC759VRM	Collector	1	61	2016-03-05T13:53:30-08:00	4	1	Stimuli/versionBstim.txt	Procedure/versionBproc.txt	Tetris		RAMP		RAMP	OFF	Unrel_G_L3	42	Study	No	3	Unrel_G_L3	ON		3000								
A1GXFMAC759VRM	Collector	1	62	2016-03-05T13:53:35-08:00	5	1	Stimuli/versionBstim.txt	Procedure/versionBproc.txt	Tetris		RANCH		RANCH	OFF	Unrel_G_L3	50	Study	No	3	Unrel_G_L3	ON		3000								
A1GXFMAC759VRM	Collector	1	63	2016-03-05T13:53:39-08:00	4	1	Stimuli/versionBstim.txt	Procedure/versionBproc.txt	Tetris		GHOUL		GHOUL	OFF	Unrel_G_L3	45	Study	No	3	Unrel_G_L3	ON		3000								
A1GXFMAC759VRM	Collector	1	64	2016-03-05T13:53:43-08:00	4	1	Stimuli/versionBstim.txt	Procedure/versionBproc.txt	Tetris		FOG		FOG	OFF	Unrel_G_L3	44	Study	No	3	Unrel_G_L3	ON		3000								
A1GXFMAC759VRM	Collector	1	65	2016-03-05T13:53:47-08:00	4	1	Stimuli/versionBstim.txt	Procedure/versionBproc.txt	Tetris		YARD		YARD	OFF	Unrel_G_L3	53	Study	No	3	Unrel_G_L3	ON		3000								
A1GXFMAC759VRM	Collector	1	66	2016-03-05T13:53:52-08:00	5	1	Stimuli/versionBstim.txt	Procedure/versionBproc.txt	Tetris		MOOSE		MOOSE	OFF	Unrel_G_L3	52	Study	No	3	Unrel_G_L3	ON		3000								
A1GXFMAC759VRM	Collector	1	67	2016-03-05T13:53:56-08:00	4	1	Stimuli/versionBstim.txt	Procedure/versionBproc.txt	Tetris		MOISTURE		MOISTURE	OFF	Unrel_G_L3	60	Study	No	3	Unrel_G_L3	ON		3000								
A1GXFMAC759VRM	Collector	1	68	2016-03-05T13:54:02-08:00	6	1	Stimuli/versionBstim.txt	Procedure/versionBproc.txt	Tetris		n/a	n/a	n/a	n/a	n/a	0	Instruct	N/A	User	Guess Instructions: 5 words related to the list you just saw were not presented. Try to guess these words by typing them into the dialog box on the next screen. You must guess at least one.	OFF		4400								
A1GXFMAC759VRM	Collector	1	69	2016-03-05T13:54:40-08:00	38	1	Stimuli/versionBstim.txt	Procedure/versionBproc.txt	Tetris		n/a	n/a	n/a	n/a	n/a	0	freerecall	N/A	User	Guess Below. You must make at least one guess. Click submit when you are finished.	OFF	Amphibian, Snake, Candle, Bat, Water	35160	1490	22080						
A1GXFMAC759VRM	Collector	1	70	2016-03-05T13:54:43-08:00	3	1	Stimuli/versionBstim.txt	Procedure/versionBproc.txt	Tetris		n/a	n/a	n/a	n/a	n/a	0	Instruct	N/A	User	Click the button below for the next list.	OFF		1750								
A1GXFMAC759VRM	Collector	1	71	2016-03-05T13:54:48-08:00	5	1	Stimuli/versionBstim.txt	Procedure/versionBproc.txt	Tetris		BLOUSE		BLOUSE	OFF	Unrel_G_L4	74	Study	No	3	Unrel_G_L4	ON		3000								
A1GXFMAC759VRM	Collector	1	72	2016-03-05T13:54:52-08:00	4	1	Stimuli/versionBstim.txt	Procedure/versionBproc.txt	Tetris		FIRE		FIRE	OFF	Unrel_G_L4	81	Study	No	3	Unrel_G_L4	ON		3000								
A1GXFMAC759VRM	Collector	1	73	2016-03-05T13:54:56-08:00	4	1	Stimuli/versionBstim.txt	Procedure/versionBproc.txt	Tetris		TALK		TALK	OFF	Unrel_G_L4	80	Study	No	3	Unrel_G_L4	ON		3000								
A1GXFMAC759VRM	Collector	1	74	2016-03-05T13:55:02-08:00	6	1	Stimuli/versionBstim.txt	Procedure/versionBproc.txt	Tetris		JELLYFISH		JELLYFISH	OFF	Unrel_G_L4	62	Study	No	3	Unrel_G_L4	ON		3000								
A1GXFMAC759VRM	Collector	1	75	2016-03-05T13:55:06-08:00	4	1	Stimuli/versionBstim.txt	Procedure/versionBproc.txt	Tetris		SAUCER		SAUCER	OFF	Unrel_G_L4	66	Study	No	3	Unrel_G_L4	ON		3000								
A1GXFMAC759VRM	Collector	1	76	2016-03-05T13:55:10-08:00	4	1	Stimuli/versionBstim.txt	Procedure/versionBproc.txt	Tetris		PUPPY		PUPPY	OFF	Unrel_G_L4	69	Study	No	3	Unrel_G_L4	ON		3000								
A1GXFMAC759VRM	Collector	1	77	2016-03-05T13:55:14-08:00	4	1	Stimuli/versionBstim.txt	Procedure/versionBproc.txt	Tetris		IVORY		IVORY	OFF	Unrel_G_L4	68	Study	No	3	Unrel_G_L4	ON		3000								
A1GXFMAC759VRM	Collector	1	78	2016-03-05T13:55:19-08:00	5	1	Stimuli/versionBstim.txt	Procedure/versionBproc.txt	Tetris		AIRPORT		AIRPORT	OFF	Unrel_G_L4	73	Study	No	3	Unrel_G_L4	ON		3000								
A1GXFMAC759VRM	Collector	1	79	2016-03-05T13:55:23-08:00	4	1	Stimuli/versionBstim.txt	Procedure/versionBproc.txt	Tetris		WHIP		WHIP	OFF	Unrel_G_L4	79	Study	No	3	Unrel_G_L4	ON		3000								
A1GXFMAC759VRM	Collector	1	80	2016-03-05T13:55:27-08:00	4	1	Stimuli/versionBstim.txt	Procedure/versionBproc.txt	Tetris		RAINBOW		RAINBOW	OFF	Unrel_G_L4	65	Study	No	3	Unrel_G_L4	ON		3000								
A1GXFMAC759VRM	Collector	1	81	2016-03-05T13:55:34-08:00	7	1	Stimuli/versionBstim.txt	Procedure/versionBproc.txt	Tetris		RUT		RUT	OFF	Unrel_G_L4	77	Study	No	3	Unrel_G_L4	ON		3000								
A1GXFMAC759VRM	Collector	1	82	2016-03-05T13:55:38-08:00	4	1	Stimuli/versionBstim.txt	Procedure/versionBproc.txt	Tetris		ROLL		ROLL	OFF	Unrel_G_L4	78	Study	No	3	Unrel_G_L4	ON		3000								
A1GXFMAC759VRM	Collector	1	83	2016-03-05T13:55:42-08:00	4	1	Stimuli/versionBstim.txt	Procedure/versionBproc.txt	Tetris		CREPE		CREPE	OFF	Unrel_G_L4	71	Study	No	3	Unrel_G_L4	ON		3000								
A1GXFMAC759VRM	Collector	1	84	2016-03-05T13:55:46-08:00	4	1	Stimuli/versionBstim.txt	Procedure/versionBproc.txt	Tetris		CAMERA		CAMERA	OFF	Unrel_G_L4	70	Study	No	3	Unrel_G_L4	ON		3000								
A1GXFMAC759VRM	Collector	1	85	2016-03-05T13:55:51-08:00	5	1	Stimuli/versionBstim.txt	Procedure/versionBproc.txt	Tetris		WRECK		WRECK	OFF	Unrel_G_L4	63	Study	No	3	Unrel_G_L4	ON		3000								
A1GXFMAC759VRM	Collector	1	86	2016-03-05T13:55:55-08:00	4	1	Stimuli/versionBstim.txt	Procedure/versionBproc.txt	Tetris		MALE		MALE	OFF	Unrel_G_L4	75	Study	No	3	Unrel_G_L4	ON		3000								
A1GXFMAC759VRM	Collector	1	87	2016-03-05T13:56:00-08:00	5	1	Stimuli/versionBstim.txt	Procedure/versionBproc.txt	Tetris		MACHINE		MACHINE	OFF	Unrel_G_L4	67	Study	No	3	Unrel_G_L4	ON		3000								
A1GXFMAC759VRM	Collector	1	88	2016-03-05T13:56:04-08:00	4	1	Stimuli/versionBstim.txt	Procedure/versionBproc.txt	Tetris		PORTRAIT		PORTRAIT	OFF	Unrel_G_L4	64	Study	No	3	Unrel_G_L4	ON		3000								
A1GXFMAC759VRM	Collector	1	89	2016-03-05T13:56:08-08:00	4	1	Stimuli/versionBstim.txt	Procedure/versionBproc.txt	Tetris		RACKET		RACKET	OFF	Unrel_G_L4	76	Study	No	3	Unrel_G_L4	ON		3000								
A1GXFMAC759VRM	Collector	1	90	2016-03-05T13:56:12-08:00	4	1	Stimuli/versionBstim.txt	Procedure/versionBproc.txt	Tetris		LEAK		LEAK	OFF	Unrel_G_L4	72	Study	No	3	Unrel_G_L4	ON		3000								
A1GXFMAC759VRM	Collector	1	91	2016-03-05T13:56:16-08:00	4	1	Stimuli/versionBstim.txt	Procedure/versionBproc.txt	Tetris		n/a	n/a	n/a	n/a	n/a	0	Instruct	N/A	User	Guess Instructions: 5 words related to the list you just saw were not presented. Try to guess these words by typing them into the dialog box on the next screen. You must guess at least one.	OFF		2020								
A1GXFMAC759VRM	Collector	1	92	2016-03-05T13:57:07-08:00	51	1	Stimuli/versionBstim.txt	Procedure/versionBproc.txt	Tetris		n/a	n/a	n/a	n/a	n/a	0	freerecall	N/A	User	Guess Below. You must make at least one guess. Click submit when you are finished.	OFF	Shirt, Cup, Kitten, Tusk, Ship	49220	1050	10930						
A1GXFMAC759VRM	Collector	1	93	2016-03-05T13:57:09-08:00	2	1	Stimuli/versionBstim.txt	Procedure/versionBproc.txt	Tetris		n/a	n/a	n/a	n/a	n/a	0	Instruct	N/A	User	Click the button below for the next list.	OFF		1600								
A1GXFMAC759VRM	Collector	1	94	2016-03-05T13:57:14-08:00	5	1	Stimuli/versionBstim.txt	Procedure/versionBproc.txt	Tetris		PAVEMENT		PAVEMENT	OFF	AdHoc_G_L5	100	Study	No	3	AdHoc_G_L5	ON		3000								
A1GXFMAC759VRM	Collector	1	95	2016-03-05T13:57:18-08:00	4	1	Stimuli/versionBstim.txt	Procedure/versionBproc.txt	Tetris		ASPHAULT		ASPHAULT	OFF	AdHoc_G_L5	87	Study	No	3	AdHoc_G_L5	ON		3000								
A1GXFMAC759VRM	Collector	1	96	2016-03-05T13:57:22-08:00	4	1	Stimuli/versionBstim.txt	Procedure/versionBproc.txt	Tetris		OBSIDIAN		OBSIDIAN	OFF	AdHoc_G_L5	97	Study	No	3	AdHoc_G_L5	ON		3000								
A1GXFMAC759VRM	Collector	1	97	2016-03-05T13:57:26-08:00	4	1	Stimuli/versionBstim.txt	Procedure/versionBproc.txt	Tetris		ONYX		ONYX	OFF	AdHoc_G_L5	96	Study	No	3	AdHoc_G_L5	ON		3000								
A1GXFMAC759VRM	Collector	1	98	2016-03-05T13:57:30-08:00	4	1	Stimuli/versionBstim.txt	Procedure/versionBproc.txt	Tetris		PEPPER 		PEPPER 	OFF	AdHoc_G_L5	94	Study	No	3	AdHoc_G_L5	ON		3000								
A1GXFMAC759VRM	Collector	1	99	2016-03-05T13:57:35-08:00	5	1	Stimuli/versionBstim.txt	Procedure/versionBproc.txt	Tetris		TIRES		TIRES	OFF	AdHoc_G_L5	84	Study	No	3	AdHoc_G_L5	ON		3000								
A1GXFMAC759VRM	Collector	1	100	2016-03-05T13:57:39-08:00	4	1	Stimuli/versionBstim.txt	Procedure/versionBproc.txt	Tetris		INK		INK	OFF	AdHoc_G_L5	93	Study	No	3	AdHoc_G_L5	ON		3000								
A1GXFMAC759VRM	Collector	1	101	2016-03-05T13:57:43-08:00	4	1	Stimuli/versionBstim.txt	Procedure/versionBproc.txt	Tetris		WITCH		WITCH	OFF	AdHoc_G_L5	89	Study	No	3	AdHoc_G_L5	ON		3000								
A1GXFMAC759VRM	Collector	1	102	2016-03-05T13:57:48-08:00	5	1	Stimuli/versionBstim.txt	Procedure/versionBproc.txt	Tetris		SHADOW		SHADOW	OFF	AdHoc_G_L5	99	Study	No	3	AdHoc_G_L5	ON		3000								
A1GXFMAC759VRM	Collector	1	103	2016-03-05T13:57:52-08:00	4	1	Stimuli/versionBstim.txt	Procedure/versionBproc.txt	Tetris		SPIDER		SPIDER	OFF	AdHoc_G_L5	92	Study	No	3	AdHoc_G_L5	ON		3000								
A1GXFMAC759VRM	Collector	1	104	2016-03-05T13:57:56-08:00	4	1	Stimuli/versionBstim.txt	Procedure/versionBproc.txt	Tetris		CHALKBOARD		CHALKBOARD	OFF	AdHoc_G_L5	86	Study	No	3	AdHoc_G_L5	ON		3000								
A1GXFMAC759VRM	Collector	1	105	2016-03-05T13:58:01-08:00	5	1	Stimuli/versionBstim.txt	Procedure/versionBproc.txt	Tetris		PUCK		PUCK	OFF	AdHoc_G_L5	83	Study	No	3	AdHoc_G_L5	ON		3000								
A1GXFMAC759VRM	Collector	1	106	2016-03-05T13:58:05-08:00	4	1	Stimuli/versionBstim.txt	Procedure/versionBproc.txt	Tetris		TUXEDO		TUXEDO	OFF	AdHoc_G_L5	88	Study	No	3	AdHoc_G_L5	ON		3000								
A1GXFMAC759VRM	Collector	1	107	2016-03-05T13:58:09-08:00	4	1	Stimuli/versionBstim.txt	Procedure/versionBproc.txt	Tetris		ASH		ASH	OFF	AdHoc_G_L5	95	Study	No	3	AdHoc_G_L5	ON		3000								
A1GXFMAC759VRM	Collector	1	108	2016-03-05T13:58:14-08:00	5	1	Stimuli/versionBstim.txt	Procedure/versionBproc.txt	Tetris		PUPIL		PUPIL	OFF	AdHoc_G_L5	82	Study	No	3	AdHoc_G_L5	ON		3000								
A1GXFMAC759VRM	Collector	1	109	2016-03-05T13:58:18-08:00	4	1	Stimuli/versionBstim.txt	Procedure/versionBproc.txt	Tetris		LIMOUSINE		LIMOUSINE	OFF	AdHoc_G_L5	91	Study	No	3	AdHoc_G_L5	ON		3000								
A1GXFMAC759VRM	Collector	1	110	2016-03-05T13:58:22-08:00	4	1	Stimuli/versionBstim.txt	Procedure/versionBproc.txt	Tetris		EBONY		EBONY	OFF	AdHoc_G_L5	101	Study	No	3	AdHoc_G_L5	ON		3000								
A1GXFMAC759VRM	Collector	1	111	2016-03-05T13:58:26-08:00	4	1	Stimuli/versionBstim.txt	Procedure/versionBproc.txt	Tetris		LICORICE		LICORICE	OFF	AdHoc_G_L5	85	Study	No	3	AdHoc_G_L5	ON		3000								
A1GXFMAC759VRM	Collector	1	112	2016-03-05T13:58:31-08:00	5	1	Stimuli/versionBstim.txt	Procedure/versionBproc.txt	Tetris		PANTHER		PANTHER	OFF	AdHoc_G_L5	90	Study	No	3	AdHoc_G_L5	ON		3000								
A1GXFMAC759VRM	Collector	1	113	2016-03-05T13:58:35-08:00	4	1	Stimuli/versionBstim.txt	Procedure/versionBproc.txt	Tetris		BRUISE		BRUISE	OFF	AdHoc_G_L5	98	Study	No	3	AdHoc_G_L5	ON		3000								
A1GXFMAC759VRM	Collector	1	114	2016-03-05T13:58:38-08:00	3	1	Stimuli/versionBstim.txt	Procedure/versionBproc.txt	Tetris		n/a	n/a	n/a	n/a	n/a	0	Instruct	N/A	User	Guess Instructions: 5 words related to the list you just saw were not presented. Try to guess these words by typing them into the dialog box on the next screen. You must guess at least one.	OFF		1900								
A1GXFMAC759VRM	Collector	1	115	2016-03-05T13:59:32-08:00	54	1	Stimuli/versionBstim.txt	Procedure/versionBproc.txt	Tetris		n/a	n/a	n/a	n/a	n/a	0	freerecall	N/A	User	Guess Below. You must make at least one guess. Click submit when you are finished.	OFF	Grout, Pearl, Car, Pen, Teacher	52350	1400	22560						
A1GXFMAC759VRM	Collector	1	116	2016-03-05T13:59:36-08:00	4	1	Stimuli/versionBstim.txt	Procedure/versionBproc.txt	Tetris		n/a	n/a	n/a	n/a	n/a	0	Instruct	N/A	User	Click the button below for the next list.	OFF		1780								
A1GXFMAC759VRM	Collector	1	117	2016-03-05T13:59:40-08:00	4	1	Stimuli/versionBstim.txt	Procedure/versionBproc.txt	Tetris		WOOD		WOOD	OFF	Cat_G_L6	116	Study	No	3	Cat_G_L6	ON		3000								
A1GXFMAC759VRM	Collector	1	118	2016-03-05T13:59:44-08:00	4	1	Stimuli/versionBstim.txt	Procedure/versionBproc.txt	Tetris		CROWBAR		CROWBAR	OFF	Cat_G_L6	114	Study	No	3	Cat_G_L6	ON		3000								
A1GXFMAC759VRM	Collector	1	119	2016-03-05T13:59:48-08:00	4	1	Stimuli/versionBstim.txt	Procedure/versionBproc.txt	Tetris		DRILL		DRILL	OFF	Cat_G_L6	106	Study	No	3	Cat_G_L6	ON		3000								
A1GXFMAC759VRM	Collector	1	120	2016-03-05T13:59:52-08:00	4	1	Stimuli/versionBstim.txt	Procedure/versionBproc.txt	Tetris		VISE		VISE	OFF	Cat_G_L6	119	Study	No	3	Cat_G_L6	ON		3000								
A1GXFMAC759VRM	Collector	1	121	2016-03-05T13:59:57-08:00	5	1	Stimuli/versionBstim.txt	Procedure/versionBproc.txt	Tetris		LATHE		LATHE	OFF	Cat_G_L6	111	Study	No	3	Cat_G_L6	ON		3000								
A1GXFMAC759VRM	Collector	1	122	2016-03-05T14:00:01-08:00	4	1	Stimuli/versionBstim.txt	Procedure/versionBproc.txt	Tetris		GLUE		GLUE	OFF	Cat_G_L6	108	Study	No	3	Cat_G_L6	ON		3000								
A1GXFMAC759VRM	Collector	1	123	2016-03-05T14:00:05-08:00	4	1	Stimuli/versionBstim.txt	Procedure/versionBproc.txt	Tetris		SAWHORSE		SAWHORSE	OFF	Cat_G_L6	109	Study	No	3	Cat_G_L6	ON		3000								
A1GXFMAC759VRM	Collector	1	124	2016-03-05T14:00:10-08:00	5	1	Stimuli/versionBstim.txt	Procedure/versionBproc.txt	Tetris		AWL		AWL	OFF	Cat_G_L6	113	Study	No	3	Cat_G_L6	ON		3000								
A1GXFMAC759VRM	Collector	1	125	2016-03-05T14:00:14-08:00	4	1	Stimuli/versionBstim.txt	Procedure/versionBproc.txt	Tetris		FILE		FILE	OFF	Cat_G_L6	110	Study	No	3	Cat_G_L6	ON		3000								
A1GXFMAC759VRM	Collector	1	126	2016-03-05T14:00:18-08:00	4	1	Stimuli/versionBstim.txt	Procedure/versionBproc.txt	Tetris		SCREWS		SCREWS	OFF	Cat_G_L6	107	Study	No	3	Cat_G_L6	ON		3000								
A1GXFMAC759VRM	Collector	1	127	2016-03-05T14:00:23-08:00	5	1	Stimuli/versionBstim.txt	Procedure/versionBproc.txt	Tetris		AXE		AXE	OFF	Cat_G_L6	118	Study	No	3	Cat_G_L6	ON		3000								
A1GXFMAC759VRM	Collector	1	128	2016-03-05T14:00:27-08:00	4	1	Stimuli/versionBstim.txt	Procedure/versionBproc.txt	Tetris		NAILS		NAILS	OFF	Cat_G_L6	102	Study	No	3	Cat_G_L6	ON		3000								
A1GXFMAC759VRM	Collector	1	129	2016-03-05T14:00:31-08:00	4	1	Stimuli/versionBstim.txt	Procedure/versionBproc.txt	Tetris		SANDER		SANDER	OFF	Cat_G_L6	115	Study	No	3	Cat_G_L6	ON		3000								
A1GXFMAC759VRM	Collector	1	130	2016-03-05T14:00:36-08:00	5	1	Stimuli/versionBstim.txt	Procedure/versionBproc.txt	Tetris		LEVEL		LEVEL	OFF	Cat_G_L6	103	Study	No	3	Cat_G_L6	ON		3000								
A1GXFMAC759VRM	Collector	1	131	2016-03-05T14:00:40-08:00	4	1	Stimuli/versionBstim.txt	Procedure/versionBproc.txt	Tetris		HINGE		HINGE	OFF	Cat_G_L6	121	Study	No	3	Cat_G_L6	ON		3000								
A1GXFMAC759VRM	Collector	1	132	2016-03-05T14:00:45-08:00	5	1	Stimuli/versionBstim.txt	Procedure/versionBproc.txt	Tetris		WRENCH		WRENCH	OFF	Cat_G_L6	105	Study	No	3	Cat_G_L6	ON		3000								
A1GXFMAC759VRM	Collector	1	133	2016-03-05T14:00:50-08:00	5	1	Stimuli/versionBstim.txt	Procedure/versionBproc.txt	Tetris		CHISEL		CHISEL	OFF	Cat_G_L6	104	Study	No	3	Cat_G_L6	ON		3000								
A1GXFMAC759VRM	Collector	1	134	2016-03-05T14:00:54-08:00	4	1	Stimuli/versionBstim.txt	Procedure/versionBproc.txt	Tetris		SANDPAPER		SANDPAPER	OFF	Cat_G_L6	112	Study	No	3	Cat_G_L6	ON		3000								
A1GXFMAC759VRM	Collector	1	135	2016-03-05T14:00:58-08:00	4	1	Stimuli/versionBstim.txt	Procedure/versionBproc.txt	Tetris		BOLTS		BOLTS	OFF	Cat_G_L6	120	Study	No	3	Cat_G_L6	ON		3000								
A1GXFMAC759VRM	Collector	1	136	2016-03-05T14:01:04-08:00	6	1	Stimuli/versionBstim.txt	Procedure/versionBproc.txt	Tetris		WEDGE		WEDGE	OFF	Cat_G_L6	117	Study	No	3	Cat_G_L6	ON		3000								
A1GXFMAC759VRM	Collector	1	137	2016-03-05T14:01:08-08:00	4	1	Stimuli/versionBstim.txt	Procedure/versionBproc.txt	Tetris		n/a	n/a	n/a	n/a	n/a	0	Instruct	N/A	User	Guess Instructions: 5 words related to the list you just saw were not presented. Try to guess these words by typing them into the dialog box on the next screen. You must guess at least one.	OFF		1910								
A1GXFMAC759VRM	Collector	1	138	2016-03-05T14:01:50-08:00	42	1	Stimuli/versionBstim.txt	Procedure/versionBproc.txt	Tetris		n/a	n/a	n/a	n/a	n/a	0	freerecall	N/A	User	Guess Below. You must make at least one guess. Click submit when you are finished.	OFF	Hammer, Ruler, Hook, Scissors, Nuts	40340	1210	8320						
A1GXFMAC759VRM	Collector	1	139	2016-03-05T14:02:03-08:00	13	1	Stimuli/versionBstim.txt	Procedure/versionBproc.txt	Tetris		n/a	n/a	n/a	n/a	n/a	0	Instruct	N/A	User	Now you will complete a recognition memory test based on the last 6 lists that you have studied. A word will be displayed on the computer screen and you are to decide whether the word was studied in the last 6 lists. If the word was studied, click the "yes" button. If the word was not studied, click the "no" button. Respond as quickly as possible without compromising accuracy.	OFF		11370								
A1GXFMAC759VRM	Collector	1	140	2016-03-05T14:02:05-08:00	2	1	Stimuli/versionBstim.txt	Procedure/versionBproc.txt	Tetris		n/a	n/a	n/a	n/a	n/a	0	Instruct	N/A	User	Click the button below to begin the test.	OFF		1400								
A1GXFMAC759VRM	Collector	1	141	2016-03-05T14:02:08-08:00	3	1	Stimuli/versionBstim.txt	Procedure/versionBproc.txt	Tetris		ONION		ONION	OFF	LI_Cat_G	227	seqrec	No	User	RGN Test	ON	Yes	1430								
A1GXFMAC759VRM	Collector	1	142	2016-03-05T14:02:11-08:00	3	1	Stimuli/versionBstim.txt	Procedure/versionBproc.txt	Tetris		BELLS		BELLS	OFF	NPLI_AdHoc_G	153	seqrec	No	User	RGN Test	ON	No	1520								
A1GXFMAC759VRM	Collector	1	143	2016-03-05T14:02:13-08:00	2	1	Stimuli/versionBstim.txt	Procedure/versionBproc.txt	Tetris		NECTARINE		NECTARINE	OFF	NPLI_Cat_G	150	seqrec	No	User	RGN Test	ON	No	830								
A1GXFMAC759VRM	Collector	1	144	2016-03-05T14:02:15-08:00	2	1	Stimuli/versionBstim.txt	Procedure/versionBproc.txt	Tetris		PLIERS		PLIERS	OFF	CI_Cat_G	300	seqrec	No	User	RGN Test	ON	No	810								
A1GXFMAC759VRM	Collector	1	145	2016-03-05T14:02:18-08:00	3	1	Stimuli/versionBstim.txt	Procedure/versionBproc.txt	Tetris		SAWHORSE		SAWHORSE	OFF	LI_Cat_G	265	seqrec	No	User	RGN Test	ON	Yes	970								
A1GXFMAC759VRM	Collector	1	146	2016-03-05T14:02:20-08:00	2	1	Stimuli/versionBstim.txt	Procedure/versionBproc.txt	Tetris		CHERRY		CHERRY	OFF	NPLI_Cat_G	143	seqrec	No	User	RGN Test	ON	No	850								
A1GXFMAC759VRM	Collector	1	147	2016-03-05T14:02:22-08:00	2	1	Stimuli/versionBstim.txt	Procedure/versionBproc.txt	Tetris		SQUIRREL		SQUIRREL	OFF	NPLI_Cat_G	167	seqrec	No	User	RGN Test	ON	No	930								
A1GXFMAC759VRM	Collector	1	148	2016-03-05T14:02:25-08:00	3	1	Stimuli/versionBstim.txt	Procedure/versionBproc.txt	Tetris		TANGERINE		TANGERINE	OFF	NPLI_Cat_G	144	seqrec	No	User	RGN Test	ON	Yes	1690								
A1GXFMAC759VRM	Collector	1	149	2016-03-05T14:02:27-08:00	2	1	Stimuli/versionBstim.txt	Procedure/versionBproc.txt	Tetris		STRAWBERRY		STRAWBERRY	OFF	NPLI_Cat_G	146	seqrec	No	User	RGN Test	ON	No	930								
A1GXFMAC759VRM	Collector	1	150	2016-03-05T14:02:29-08:00	2	1	Stimuli/versionBstim.txt	Procedure/versionBproc.txt	Tetris		WEDGE		WEDGE	OFF	LI_Cat_G	269	seqrec	No	User	RGN Test	ON	Yes	800								
A1GXFMAC759VRM	Collector	1	151	2016-03-05T14:02:32-08:00	3	1	Stimuli/versionBstim.txt	Procedure/versionBproc.txt	Tetris		SHEEP		SHEEP	OFF	NPLI_Cat_G	165	seqrec	No	User	RGN Test	ON	No	1040								
A1GXFMAC759VRM	Collector	1	152	2016-03-05T14:02:33-08:00	1	1	Stimuli/versionBstim.txt	Procedure/versionBproc.txt	Tetris		TOWN		TOWN	OFF	NPCI_Unrel_G	187	seqrec	No	User	RGN Test	ON	No	700								
A1GXFMAC759VRM	Collector	1	153	2016-03-05T14:02:37-08:00	4	1	Stimuli/versionBstim.txt	Procedure/versionBproc.txt	Tetris		SHADOW		SHADOW	OFF	LI_AdHoc_G	260	seqrec	No	User	RGN Test	ON	Yes	2040								
A1GXFMAC759VRM	Collector	1	154	2016-03-05T14:02:39-08:00	2	1	Stimuli/versionBstim.txt	Procedure/versionBproc.txt	Tetris		LAWNMOWER		LAWNMOWER	OFF	NPCI_AdHoc_G	200	seqrec	No	User	RGN Test	ON	No	1500								
A1GXFMAC759VRM	Collector	1	155	2016-03-05T14:02:44-08:00	5	1	Stimuli/versionBstim.txt	Procedure/versionBproc.txt	Tetris		MILK		MILK	OFF	CI_AdHoc_G	276	seqrec	No	User	RGN Test	ON	Yes	3130								
A1GXFMAC759VRM	Collector	1	156	2016-03-05T14:02:46-08:00	2	1	Stimuli/versionBstim.txt	Procedure/versionBproc.txt	Tetris		GARAGE		GARAGE	OFF	CI_Unrel_G	285	seqrec	No	User	RGN Test	ON	No	780								
A1GXFMAC759VRM	Collector	1	157	2016-03-05T14:02:48-08:00	2	1	Stimuli/versionBstim.txt	Procedure/versionBproc.txt	Tetris		PEAR		PEAR	OFF	NPLI_Cat_G	142	seqrec	No	User	RGN Test	ON	No	700								
A1GXFMAC759VRM	Collector	1	158	2016-03-05T14:02:50-08:00	2	1	Stimuli/versionBstim.txt	Procedure/versionBproc.txt	Tetris		LENS		LENS	OFF	CI_Unrel_G	291	seqrec	No	User	RGN Test	ON	Yes	1640								
A1GXFMAC759VRM	Collector	1	159	2016-03-05T14:02:53-08:00	3	1	Stimuli/versionBstim.txt	Procedure/versionBproc.txt	Tetris		RAINBOW		RAINBOW	OFF	LI_Unrel_G	243	seqrec	No	User	RGN Test	ON	Yes	1120								
A1GXFMAC759VRM	Collector	1	160	2016-03-05T14:02:56-08:00	3	1	Stimuli/versionBstim.txt	Procedure/versionBproc.txt	Tetris		CONE		CONE	OFF	NPLI_Unrel_G	136	seqrec	No	User	RGN Test	ON	No	2160								
A1GXFMAC759VRM	Collector	1	161	2016-03-05T14:03:00-08:00	4	1	Stimuli/versionBstim.txt	Procedure/versionBproc.txt	Tetris		BOW		BOW	OFF	NPCI_Unrel_G	188	seqrec	No	User	RGN Test	ON	No	2570								
A1GXFMAC759VRM	Collector	1	162	2016-03-05T14:03:03-08:00	3	1	Stimuli/versionBstim.txt	Procedure/versionBproc.txt	Tetris		HOOK		HOOK	OFF	NPLI_Unrel_G	134	seqrec	No	User	RGN Test	ON	No	1530								
A1GXFMAC759VRM	Collector	1	163	2016-03-05T14:03:06-08:00	3	1	Stimuli/versionBstim.txt	Procedure/versionBproc.txt	Tetris		OCTOPUS		OCTOPUS	OFF	NPCI_Unrel_G	190	seqrec	No	User	RGN Test	ON	No	1000								
A1GXFMAC759VRM	Collector	1	164	2016-03-05T14:03:10-08:00	4	1	Stimuli/versionBstim.txt	Procedure/versionBproc.txt	Tetris		VINEGAR		VINEGAR	OFF	LI_AdHoc_G	220	seqrec	No	User	RGN Test	ON	Yes	1730								
A1GXFMAC759VRM	Collector	1	165	2016-03-05T14:03:12-08:00	2	1	Stimuli/versionBstim.txt	Procedure/versionBproc.txt	Tetris		PEDAL		PEDAL	OFF	NPCI_Unrel_G	191	seqrec	No	User	RGN Test	ON	No	920								
A1GXFMAC759VRM	Collector	1	166	2016-03-05T14:03:14-08:00	2	1	Stimuli/versionBstim.txt	Procedure/versionBproc.txt	Tetris		CANISTER		CANISTER	OFF	LI_Unrel_G	238	seqrec	No	User	RGN Test	ON	No	860								
A1GXFMAC759VRM	Collector	1	167	2016-03-05T14:03:16-08:00	2	1	Stimuli/versionBstim.txt	Procedure/versionBproc.txt	Tetris		MUD		MUD	OFF	NPCI_Unrel_G	209	seqrec	No	User	RGN Test	ON	No	840								
A1GXFMAC759VRM	Collector	1	168	2016-03-05T14:03:20-08:00	4	1	Stimuli/versionBstim.txt	Procedure/versionBproc.txt	Tetris		STEREO		STEREO	OFF	NPLI_AdHoc_G	160	seqrec	No	User	RGN Test	ON	No	800								
A1GXFMAC759VRM	Collector	1	169	2016-03-05T14:03:22-08:00	2	1	Stimuli/versionBstim.txt	Procedure/versionBproc.txt	Tetris		VAULT		VAULT	OFF	CI_Unrel_G	289	seqrec	No	User	RGN Test	ON	No	590								
A1GXFMAC759VRM	Collector	1	170	2016-03-05T14:03:24-08:00	2	1	Stimuli/versionBstim.txt	Procedure/versionBproc.txt	Tetris		BADGE		BADGE	OFF	NPLI_Unrel_G	132	seqrec	No	User	RGN Test	ON	No	1630								
A1GXFMAC759VRM	Collector	1	171	2016-03-05T14:03:27-08:00	3	1	Stimuli/versionBstim.txt	Procedure/versionBproc.txt	Tetris		BUFFALO		BUFFALO	OFF	NPLI_Cat_G	171	seqrec	No	User	RGN Test	ON	Yes	1400								
A1GXFMAC759VRM	Collector	1	172	2016-03-05T14:03:32-08:00	5	1	Stimuli/versionBstim.txt	Procedure/versionBproc.txt	Tetris		ASPARAGUS		ASPARAGUS	OFF	LI_Cat_G	223	seqrec	No	User	RGN Test	ON	Yes	2790								
A1GXFMAC759VRM	Collector	1	173	2016-03-05T14:03:35-08:00	3	1	Stimuli/versionBstim.txt	Procedure/versionBproc.txt	Tetris		GREEN BEANS		GREEN BEANS	OFF	CI_Cat_G	278	seqrec	No	User	RGN Test	ON	Yes	720								
A1GXFMAC759VRM	Collector	1	174	2016-03-05T14:03:37-08:00	2	1	Stimuli/versionBstim.txt	Procedure/versionBproc.txt	Tetris		SIREN		SIREN	OFF	NPCI_AdHoc_G	199	seqrec	No	User	RGN Test	ON	No	1100								
A1GXFMAC759VRM	Collector	1	175	2016-03-05T14:03:41-08:00	4	1	Stimuli/versionBstim.txt	Procedure/versionBproc.txt	Tetris		SPINACH		SPINACH	OFF	CI_Cat_G	280	seqrec	No	User	RGN Test	ON	Yes	1370								
A1GXFMAC759VRM	Collector	1	176	2016-03-05T14:03:43-08:00	2	1	Stimuli/versionBstim.txt	Procedure/versionBproc.txt	Tetris		WHITE		WHITE	OFF	CI_Unrel_G	288	seqrec	No	User	RGN Test	ON	No	1200								
A1GXFMAC759VRM	Collector	1	177	2016-03-05T14:03:45-08:00	2	1	Stimuli/versionBstim.txt	Procedure/versionBproc.txt	Tetris		MALE		MALE	OFF	LI_Unrel_G	248	seqrec	No	User	RGN Test	ON	No	1270								
A1GXFMAC759VRM	Collector	1	178	2016-03-05T14:03:48-08:00	3	1	Stimuli/versionBstim.txt	Procedure/versionBproc.txt	Tetris		TOMATO		TOMATO	OFF	CI_Cat_G	279	seqrec	No	User	RGN Test	ON	Yes	1500								
A1GXFMAC759VRM	Collector	1	179	2016-03-05T14:03:50-08:00	2	1	Stimuli/versionBstim.txt	Procedure/versionBproc.txt	Tetris		EMERALD		EMERALD	OFF	NPCI_AdHoc_G	183	seqrec	No	User	RGN Test	ON	No	850								
A1GXFMAC759VRM	Collector	1	180	2016-03-05T14:03:52-08:00	2	1	Stimuli/versionBstim.txt	Procedure/versionBproc.txt	Tetris		CHAIN SAW		CHAIN SAW	OFF	NPLI_AdHoc_G	154	seqrec	No	User	RGN Test	ON	Yes	1250								
A1GXFMAC759VRM	Collector	1	181	2016-03-05T14:03:55-08:00	3	1	Stimuli/versionBstim.txt	Procedure/versionBproc.txt	Tetris		PACKET		PACKET	OFF	CI_Unrel_G	290	seqrec	No	User	RGN Test	ON	No	1260								
A1GXFMAC759VRM	Collector	1	182	2016-03-05T14:03:57-08:00	2	1	Stimuli/versionBstim.txt	Procedure/versionBproc.txt	Tetris		COAL		COAL	OFF	CI_AdHoc_G	292	seqrec	No	User	RGN Test	ON	No	770								
A1GXFMAC759VRM	Collector	1	183	2016-03-05T14:03:59-08:00	2	1	Stimuli/versionBstim.txt	Procedure/versionBproc.txt	Tetris		WRENCH		WRENCH	OFF	LI_Cat_G	263	seqrec	No	User	RGN Test	ON	Yes	870								
A1GXFMAC759VRM	Collector	1	184	2016-03-05T14:04:01-08:00	2	1	Stimuli/versionBstim.txt	Procedure/versionBproc.txt	Tetris		FATHER		FATHER	OFF	NPLI_Unrel_G	175	seqrec	No	User	RGN Test	ON	No	950								
A1GXFMAC759VRM	Collector	1	185	2016-03-05T14:04:04-08:00	3	1	Stimuli/versionBstim.txt	Procedure/versionBproc.txt	Tetris		TENNIS BALL		TENNIS BALL	OFF	NPLI_AdHoc_G	127	seqrec	No	User	RGN Test	ON	No	1040								
A1GXFMAC759VRM	Collector	1	186	2016-03-05T14:04:08-08:00	4	1	Stimuli/versionBstim.txt	Procedure/versionBproc.txt	Tetris		TIGER		TIGER	OFF	NPCI_Cat_G	204	seqrec	No	User	RGN Test	ON	No	2870								
A1GXFMAC759VRM	Collector	1	187	2016-03-05T14:04:10-08:00	2	1	Stimuli/versionBstim.txt	Procedure/versionBproc.txt	Tetris		CANTALOUPE		CANTALOUPE	OFF	NPLI_Cat_G	147	seqrec	No	User	RGN Test	ON	No	850								
A1GXFMAC759VRM	Collector	1	188	2016-03-05T14:04:13-08:00	3	1	Stimuli/versionBstim.txt	Procedure/versionBproc.txt	Tetris		YARD		YARD	OFF	LI_Unrel_G	237	seqrec	No	User	RGN Test	ON	Yes	1860								
A1GXFMAC759VRM	Collector	1	189	2016-03-05T14:04:15-08:00	2	1	Stimuli/versionBstim.txt	Procedure/versionBproc.txt	Tetris		PYRAMID		PYRAMID	OFF	NPLI_Unrel_G	133	seqrec	No	User	RGN Test	ON	No	920								
A1GXFMAC759VRM	Collector	1	190	2016-03-05T14:04:17-08:00	2	1	Stimuli/versionBstim.txt	Procedure/versionBproc.txt	Tetris		YELL		YELL	OFF	NPLI_AdHoc_G	152	seqrec	No	User	RGN Test	ON	No	870								
A1GXFMAC759VRM	Collector	1	191	2016-03-05T14:04:19-08:00	2	1	Stimuli/versionBstim.txt	Procedure/versionBproc.txt	Tetris		LEAVES		LEAVES	OFF	NPLI_AdHoc_G	122	seqrec	No	User	RGN Test	ON	No	880								
A1GXFMAC759VRM	Collector	1	192	2016-03-05T14:04:21-08:00	2	1	Stimuli/versionBstim.txt	Procedure/versionBproc.txt	Tetris		ART		ART	OFF	NPCI_Unrel_G	211	seqrec	No	User	RGN Test	ON	No	710								
A1GXFMAC759VRM	Collector	1	193	2016-03-05T14:04:24-08:00	3	1	Stimuli/versionBstim.txt	Procedure/versionBproc.txt	Tetris		HINGE		HINGE	OFF	LI_Cat_G	271	seqrec	No	User	RGN Test	ON	Yes	1380								
A1GXFMAC759VRM	Collector	1	194	2016-03-05T14:04:26-08:00	2	1	Stimuli/versionBstim.txt	Procedure/versionBproc.txt	Tetris		VALLEY		VALLEY	OFF	CI_Unrel_G	283	seqrec	No	User	RGN Test	ON	No	960								
A1GXFMAC759VRM	Collector	1	195	2016-03-05T14:04:30-08:00	4	1	Stimuli/versionBstim.txt	Procedure/versionBproc.txt	Tetris		DOME		DOME	OFF	LI_Unrel_G	235	seqrec	No	User	RGN Test	ON	Yes	1100								
A1GXFMAC759VRM	Collector	1	196	2016-03-05T14:04:33-08:00	3	1	Stimuli/versionBstim.txt	Procedure/versionBproc.txt	Tetris		SWEAT		SWEAT	OFF	LI_AdHoc_G	214	seqrec	No	User	RGN Test	ON	Yes	1490								
A1GXFMAC759VRM	Collector	1	197	2016-03-05T14:04:35-08:00	2	1	Stimuli/versionBstim.txt	Procedure/versionBproc.txt	Tetris		MERCURY		MERCURY	OFF	LI_AdHoc_G	213	seqrec	No	User	RGN Test	ON	Yes	780								
A1GXFMAC759VRM	Collector	1	198	2016-03-05T14:04:37-08:00	2	1	Stimuli/versionBstim.txt	Procedure/versionBproc.txt	Tetris		LATHE		LATHE	OFF	LI_Cat_G	266	seqrec	No	User	RGN Test	ON	Yes	660								
A1GXFMAC759VRM	Collector	1	199	2016-03-05T14:04:39-08:00	2	1	Stimuli/versionBstim.txt	Procedure/versionBproc.txt	Tetris		WRECK		WRECK	OFF	LI_Unrel_G	242	seqrec	No	User	RGN Test	ON	Yes	860								
A1GXFMAC759VRM	Collector	1	200	2016-03-05T14:04:41-08:00	2	1	Stimuli/versionBstim.txt	Procedure/versionBproc.txt	Tetris		CREAM		CREAM	OFF	LI_AdHoc_G	221	seqrec	No	User	RGN Test	ON	Yes	980								
A1GXFMAC759VRM	Collector	1	201	2016-03-05T14:04:46-08:00	5	1	Stimuli/versionBstim.txt	Procedure/versionBproc.txt	Tetris		DRUMS		DRUMS	OFF	NPLI_AdHoc_G	157	seqrec	No	User	RGN Test	ON	Yes	3620								
A1GXFMAC759VRM	Collector	1	202	2016-03-05T14:04:48-08:00	2	1	Stimuli/versionBstim.txt	Procedure/versionBproc.txt	Tetris		LIME		LIME	OFF	NPLI_AdHoc_G	130	seqrec	No	User	RGN Test	ON	No	1000								
A1GXFMAC759VRM	Collector	1	203	2016-03-05T14:04:50-08:00	2	1	Stimuli/versionBstim.txt	Procedure/versionBproc.txt	Tetris		REPTILE		REPTILE	OFF	LI_Unrel_G	241	seqrec	No	User	RGN Test	ON	Yes	1110								
A1GXFMAC759VRM	Collector	1	204	2016-03-05T14:04:52-08:00	2	1	Stimuli/versionBstim.txt	Procedure/versionBproc.txt	Tetris		DONKEY		DONKEY	OFF	NPLI_Cat_G	168	seqrec	No	User	RGN Test	ON	No	850								
A1GXFMAC759VRM	Collector	1	205	2016-03-05T14:04:54-08:00	2	1	Stimuli/versionBstim.txt	Procedure/versionBproc.txt	Tetris		MOUSE		MOUSE	OFF	NPCI_Cat_G	206	seqrec	No	User	RGN Test	ON	No	990								
A1GXFMAC759VRM	Collector	1	206	2016-03-05T14:04:58-08:00	4	1	Stimuli/versionBstim.txt	Procedure/versionBproc.txt	Tetris		MACHINE		MACHINE	OFF	LI_Unrel_G	244	seqrec	No	User	RGN Test	ON	Yes	2730								
A1GXFMAC759VRM	Collector	1	207	2016-03-05T14:05:00-08:00	2	1	Stimuli/versionBstim.txt	Procedure/versionBproc.txt	Tetris		POISON		POISON	OFF	NPLI_Unrel_G	176	seqrec	No	User	RGN Test	ON	No	1020								
A1GXFMAC759VRM	Collector	1	208	2016-03-05T14:05:03-08:00	3	1	Stimuli/versionBstim.txt	Procedure/versionBproc.txt	Tetris		WITCH		WITCH	OFF	LI_AdHoc_G	255	seqrec	No	User	RGN Test	ON	Yes	970								
A1GXFMAC759VRM	Collector	1	209	2016-03-05T14:05:05-08:00	2	1	Stimuli/versionBstim.txt	Procedure/versionBproc.txt	Tetris		SODA		SODA	OFF	LI_AdHoc_G	212	seqrec	No	User	RGN Test	ON	No	1440								
A1GXFMAC759VRM	Collector	1	210	2016-03-05T14:05:07-08:00	2	1	Stimuli/versionBstim.txt	Procedure/versionBproc.txt	Tetris		PARTY		PARTY	OFF	NPLI_AdHoc_G	158	seqrec	No	User	RGN Test	ON	No	900								
A1GXFMAC759VRM	Collector	1	211	2016-03-05T14:05:09-08:00	2	1	Stimuli/versionBstim.txt	Procedure/versionBproc.txt	Tetris		COFFEE		COFFEE	OFF	CI_AdHoc_G	272	seqrec	No	User	RGN Test	ON	No	920								
A1GXFMAC759VRM	Collector	1	212	2016-03-05T14:05:11-08:00	2	1	Stimuli/versionBstim.txt	Procedure/versionBproc.txt	Tetris		RAVEN		RAVEN	OFF	CI_AdHoc_G	295	seqrec	No	User	RGN Test	ON	No	730								
A1GXFMAC759VRM	Collector	1	213	2016-03-05T14:05:13-08:00	2	1	Stimuli/versionBstim.txt	Procedure/versionBproc.txt	Tetris		ISLAND		ISLAND	OFF	CI_Unrel_G	284	seqrec	No	User	RGN Test	ON	No	800								
A1GXFMAC759VRM	Collector	1	214	2016-03-05T14:05:16-08:00	3	1	Stimuli/versionBstim.txt	Procedure/versionBproc.txt	Tetris		AIRPORT		AIRPORT	OFF	LI_Unrel_G	247	seqrec	No	User	RGN Test	ON	Yes	1020								
A1GXFMAC759VRM	Collector	1	215	2016-03-05T14:05:18-08:00	2	1	Stimuli/versionBstim.txt	Procedure/versionBproc.txt	Tetris		TRACTOR		TRACTOR	OFF	NPLI_AdHoc_G	156	seqrec	No	User	RGN Test	ON	No	1280								
A1GXFMAC759VRM	Collector	1	216	2016-03-05T14:05:20-08:00	2	1	Stimuli/versionBstim.txt	Procedure/versionBproc.txt	Tetris		FOX		FOX	OFF	NPLI_Cat_G	170	seqrec	No	User	RGN Test	ON	No	750								
A1GXFMAC759VRM	Collector	1	217	2016-03-05T14:05:24-08:00	4	1	Stimuli/versionBstim.txt	Procedure/versionBproc.txt	Tetris		PLANE		PLANE	OFF	CI_Cat_G	299	seqrec	No	User	RGN Test	ON	Yes	2190								
A1GXFMAC759VRM	Collector	1	218	2016-03-05T14:05:27-08:00	3	1	Stimuli/versionBstim.txt	Procedure/versionBproc.txt	Tetris		SANDER		SANDER	OFF	LI_Cat_G	268	seqrec	No	User	RGN Test	ON	Yes	1020								
A1GXFMAC759VRM	Collector	1	219	2016-03-05T14:05:29-08:00	2	1	Stimuli/versionBstim.txt	Procedure/versionBproc.txt	Tetris		BABIES		BABIES	OFF	NPLI_AdHoc_G	159	seqrec	No	User	RGN Test	ON	No	810								
A1GXFMAC759VRM	Collector	1	220	2016-03-05T14:05:31-08:00	2	1	Stimuli/versionBstim.txt	Procedure/versionBproc.txt	Tetris		PLUM		PLUM	OFF	NPCI_Cat_G	195	seqrec	No	User	RGN Test	ON	No	800								
A1GXFMAC759VRM	Collector	1	221	2016-03-05T14:05:34-08:00	3	1	Stimuli/versionBstim.txt	Procedure/versionBproc.txt	Tetris		INK		INK	OFF	LI_AdHoc_G	257	seqrec	No	User	RGN Test	ON	Yes	850								
A1GXFMAC759VRM	Collector	1	222	2016-03-05T14:05:37-08:00	3	1	Stimuli/versionBstim.txt	Procedure/versionBproc.txt	Tetris		SPROUTS		SPROUTS	OFF	NPLI_AdHoc_G	129	seqrec	No	User	RGN Test	ON	No	920								
A1GXFMAC759VRM	Collector	1	223	2016-03-05T14:05:42-08:00	5	1	Stimuli/versionBstim.txt	Procedure/versionBproc.txt	Tetris		COW		COW	OFF	NPCI_Cat_G	203	seqrec	No	User	RGN Test	ON	Yes	3300								
A1GXFMAC759VRM	Collector	1	224	2016-03-05T14:05:44-08:00	2	1	Stimuli/versionBstim.txt	Procedure/versionBproc.txt	Tetris		CABBAGE		CABBAGE	OFF	LI_Cat_G	224	seqrec	No	User	RGN Test	ON	Yes	730								
A1GXFMAC759VRM	Collector	1	225	2016-03-05T14:05:47-08:00	3	1	Stimuli/versionBstim.txt	Procedure/versionBproc.txt	Tetris		SNAKE		SNAKE	OFF	NPLI_AdHoc_G	128	seqrec	No	User	RGN Test	ON	Yes	1290								
A1GXFMAC759VRM	Collector	1	226	2016-03-05T14:05:50-08:00	3	1	Stimuli/versionBstim.txt	Procedure/versionBproc.txt	Tetris		BOMB		BOMB	OFF	NPLI_AdHoc_G	161	seqrec	No	User	RGN Test	ON	Yes	2170								
A1GXFMAC759VRM	Collector	1	227	2016-03-05T14:05:52-08:00	2	1	Stimuli/versionBstim.txt	Procedure/versionBproc.txt	Tetris		BROCCOLI		BROCCOLI	OFF	NPCI_AdHoc_G	185	seqrec	No	User	RGN Test	ON	Yes	970								
A1GXFMAC759VRM	Collector	1	228	2016-03-05T14:05:55-08:00	3	1	Stimuli/versionBstim.txt	Procedure/versionBproc.txt	Tetris		TEE		TEE	OFF	LI_Unrel_G	232	seqrec	No	User	RGN Test	ON	Yes	1300								
A1GXFMAC759VRM	Collector	1	229	2016-03-05T14:05:58-08:00	3	1	Stimuli/versionBstim.txt	Procedure/versionBproc.txt	Tetris		BLUEBERRY		BLUEBERRY	OFF	NPLI_Cat_G	148	seqrec	No	User	RGN Test	ON	No	1790								
A1GXFMAC759VRM	Collector	1	230	2016-03-05T14:06:01-08:00	3	1	Stimuli/versionBstim.txt	Procedure/versionBproc.txt	Tetris		GHOUL		GHOUL	OFF	LI_Unrel_G	233	seqrec	No	User	RGN Test	ON	Yes	1170								
A1GXFMAC759VRM	Collector	1	231	2016-03-05T14:06:07-08:00	6	1	Stimuli/versionBstim.txt	Procedure/versionBproc.txt	Tetris		SCREWS		SCREWS	OFF	LI_Cat_G	264	seqrec	No	User	RGN Test	ON	Yes	3080								
A1GXFMAC759VRM	Collector	1	232	2016-03-05T14:06:09-08:00	2	1	Stimuli/versionBstim.txt	Procedure/versionBproc.txt	Tetris		THUNDER		THUNDER	OFF	NPCI_AdHoc_G	201	seqrec	No	User	RGN Test	ON	No	840								
A1GXFMAC759VRM	Collector	1	233	2016-03-05T14:06:11-08:00	2	1	Stimuli/versionBstim.txt	Procedure/versionBproc.txt	Tetris		LICORICE		LICORICE	OFF	LI_AdHoc_G	253	seqrec	No	User	RGN Test	ON	No	850								
A1GXFMAC759VRM	Collector	1	234	2016-03-05T14:06:13-08:00	2	1	Stimuli/versionBstim.txt	Procedure/versionBproc.txt	Tetris		LEVEL		LEVEL	OFF	LI_Cat_G	262	seqrec	No	User	RGN Test	ON	Yes	1200								
A1GXFMAC759VRM	Collector	1	235	2016-03-05T14:06:15-08:00	2	1	Stimuli/versionBstim.txt	Procedure/versionBproc.txt	Tetris		CAGE		CAGE	OFF	NPCI_Unrel_G	207	seqrec	No	User	RGN Test	ON	No	950								
A1GXFMAC759VRM	Collector	1	236	2016-03-05T14:06:17-08:00	2	1	Stimuli/versionBstim.txt	Procedure/versionBproc.txt	Tetris		JUICE		JUICE	OFF	CI_AdHoc_G	274	seqrec	No	User	RGN Test	ON	No	830								
A1GXFMAC759VRM	Collector	1	237	2016-03-05T14:06:19-08:00	2	1	Stimuli/versionBstim.txt	Procedure/versionBproc.txt	Tetris		JUNGLE		JUNGLE	OFF	NPLI_AdHoc_G	126	seqrec	No	User	RGN Test	ON	No	790								
A1GXFMAC759VRM	Collector	1	238	2016-03-05T14:06:21-08:00	2	1	Stimuli/versionBstim.txt	Procedure/versionBproc.txt	Tetris		HUCKLEBERRY		HUCKLEBERRY	OFF	NPLI_Cat_G	151	seqrec	No	User	RGN Test	ON	No	740								
A1GXFMAC759VRM	Collector	1	239	2016-03-05T14:06:25-08:00	4	1	Stimuli/versionBstim.txt	Procedure/versionBproc.txt	Tetris		WINE		WINE	OFF	LI_AdHoc_G	215	seqrec	No	User	RGN Test	ON	Yes	1120								
A1GXFMAC759VRM	Collector	1	240	2016-03-05T14:06:27-08:00	2	1	Stimuli/versionBstim.txt	Procedure/versionBproc.txt	Tetris		EBONY		EBONY	OFF	LI_AdHoc_G	261	seqrec	No	User	RGN Test	ON	Yes	920								
A1GXFMAC759VRM	Collector	1	241	2016-03-05T14:06:31-08:00	4	1	Stimuli/versionBstim.txt	Procedure/versionBproc.txt	Tetris		LIMOUSINE		LIMOUSINE	OFF	LI_AdHoc_G	256	seqrec	No	User	RGN Test	ON	Yes	1800								
A1GXFMAC759VRM	Collector	1	242	2016-03-05T14:06:33-08:00	2	1	Stimuli/versionBstim.txt	Procedure/versionBproc.txt	Tetris		TRUMPET		TRUMPET	OFF	NPLI_AdHoc_G	155	seqrec	No	User	RGN Test	ON	No	800								
A1GXFMAC759VRM	Collector	1	243	2016-03-05T14:06:36-08:00	3	1	Stimuli/versionBstim.txt	Procedure/versionBproc.txt	Tetris		PUPPY		PUPPY	OFF	LI_Unrel_G	245	seqrec	No	User	RGN Test	ON	Yes	2080								
A1GXFMAC759VRM	Collector	1	244	2016-03-05T14:06:38-08:00	2	1	Stimuli/versionBstim.txt	Procedure/versionBproc.txt	Tetris		LAVA		LAVA	OFF	LI_AdHoc_G	218	seqrec	No	User	RGN Test	ON	Yes	1120								
A1GXFMAC759VRM	Collector	1	245	2016-03-05T14:06:40-08:00	2	1	Stimuli/versionBstim.txt	Procedure/versionBproc.txt	Tetris		GUN		GUN	OFF	NPCI_AdHoc_G	198	seqrec	No	User	RGN Test	ON	No	990								
A1GXFMAC759VRM	Collector	1	246	2016-03-05T14:06:42-08:00	2	1	Stimuli/versionBstim.txt	Procedure/versionBproc.txt	Tetris		COMEDY		COMEDY	OFF	CI_Unrel_G	286	seqrec	No	User	RGN Test	ON	No	890								
A1GXFMAC759VRM	Collector	1	247	2016-03-05T14:06:49-08:00	7	1	Stimuli/versionBstim.txt	Procedure/versionBproc.txt	Tetris		PIPE		PIPE	OFF	NPLI_Unrel_G	139	seqrec	No	User	RGN Test	ON	Yes	2400								
A1GXFMAC759VRM	Collector	1	248	2016-03-05T14:06:51-08:00	2	1	Stimuli/versionBstim.txt	Procedure/versionBproc.txt	Tetris		SPIKE		SPIKE	OFF	LI_Unrel_G	234	seqrec	No	User	RGN Test	ON	Yes	1450								
A1GXFMAC759VRM	Collector	1	249	2016-03-05T14:06:56-08:00	5	1	Stimuli/versionBstim.txt	Procedure/versionBproc.txt	Tetris		AVOCADO		AVOCADO	OFF	NPCI_AdHoc_G	184	seqrec	No	User	RGN Test	ON	Yes	3230								
A1GXFMAC759VRM	Collector	1	250	2016-03-05T14:07:00-08:00	4	1	Stimuli/versionBstim.txt	Procedure/versionBproc.txt	Tetris		RAT		RAT	OFF	NPLI_Cat_G	164	seqrec	No	User	RGN Test	ON	Yes	2670								
A1GXFMAC759VRM	Collector	1	251	2016-03-05T14:07:03-08:00	3	1	Stimuli/versionBstim.txt	Procedure/versionBproc.txt	Tetris		LIMA BEANS		LIMA BEANS	OFF	LI_Cat_G	226	seqrec	No	User	RGN Test	ON	Yes	940								
A1GXFMAC759VRM	Collector	1	252	2016-03-05T14:07:06-08:00	3	1	Stimuli/versionBstim.txt	Procedure/versionBproc.txt	Tetris		SAND		SAND	OFF	NPLI_Unrel_G	138	seqrec	No	User	RGN Test	ON	No	2460								
A1GXFMAC759VRM	Collector	1	253	2016-03-05T14:07:10-08:00	4	1	Stimuli/versionBstim.txt	Procedure/versionBproc.txt	Tetris		FROG		FROG	OFF	NPLI_AdHoc_G	123	seqrec	No	User	RGN Test	ON	Yes	2570								
A1GXFMAC759VRM	Collector	1	254	2016-03-05T14:07:14-08:00	4	1	Stimuli/versionBstim.txt	Procedure/versionBproc.txt	Tetris		DECK		DECK	OFF	NPLI_Unrel_G	180	seqrec	No	User	RGN Test	ON	No	1370								
A1GXFMAC759VRM	Collector	1	255	2016-03-05T14:07:18-08:00	4	1	Stimuli/versionBstim.txt	Procedure/versionBproc.txt	Tetris		RAIN 		RAIN 	OFF	CI_AdHoc_G	275	seqrec	No	User	RGN Test	ON	No	1470								
A1GXFMAC759VRM	Collector	1	256	2016-03-05T14:07:20-08:00	2	1	Stimuli/versionBstim.txt	Procedure/versionBproc.txt	Tetris		PINEAPPLE		PINEAPPLE	OFF	NPLI_Cat_G	145	seqrec	No	User	RGN Test	ON	No	770								
A1GXFMAC759VRM	Collector	1	257	2016-03-05T14:07:26-08:00	6	1	Stimuli/versionBstim.txt	Procedure/versionBproc.txt	Tetris		HAMMER		HAMMER	OFF	CI_Cat_G	301	seqrec	No	User	RGN Test	ON	Yes	3180								
A1GXFMAC759VRM	Collector	1	258	2016-03-05T14:07:28-08:00	2	1	Stimuli/versionBstim.txt	Procedure/versionBproc.txt	Tetris		CREPE		CREPE	OFF	LI_Unrel_G	246	seqrec	No	User	RGN Test	ON	Yes	1220								
A1GXFMAC759VRM	Collector	1	259	2016-03-05T14:07:31-08:00	3	1	Stimuli/versionBstim.txt	Procedure/versionBproc.txt	Tetris		PIG		PIG	OFF	NPCI_Cat_G	205	seqrec	No	User	RGN Test	ON	No	1130								
A1GXFMAC759VRM	Collector	1	260	2016-03-05T14:07:36-08:00	5	1	Stimuli/versionBstim.txt	Procedure/versionBproc.txt	Tetris		CARROT		CARROT	OFF	CI_Cat_G	281	seqrec	No	User	RGN Test	ON	No	4270								
A1GXFMAC759VRM	Collector	1	261	2016-03-05T14:07:39-08:00	3	1	Stimuli/versionBstim.txt	Procedure/versionBproc.txt	Tetris		SHRIMP		SHRIMP	OFF	NPLI_Unrel_G	140	seqrec	No	User	RGN Test	ON	No	1280								
A1GXFMAC759VRM	Collector	1	262	2016-03-05T14:07:42-08:00	3	1	Stimuli/versionBstim.txt	Procedure/versionBproc.txt	Tetris		LEMON		LEMON	OFF	NPCI_Cat_G	196	seqrec	No	User	RGN Test	ON	No	1290								
A1GXFMAC759VRM	Collector	1	263	2016-03-05T14:07:44-08:00	2	1	Stimuli/versionBstim.txt	Procedure/versionBproc.txt	Tetris		INCENSE		INCENSE	OFF	LI_Unrel_G	240	seqrec	No	User	RGN Test	ON	Yes	950								
A1GXFMAC759VRM	Collector	1	264	2016-03-05T14:07:46-08:00	2	1	Stimuli/versionBstim.txt	Procedure/versionBproc.txt	Tetris		OBSIDIAN		OBSIDIAN	OFF	LI_AdHoc_G	259	seqrec	No	User	RGN Test	ON	Yes	820								
A1GXFMAC759VRM	Collector	1	265	2016-03-05T14:07:51-08:00	5	1	Stimuli/versionBstim.txt	Procedure/versionBproc.txt	Tetris		MINT		MINT	OFF	NPCI_AdHoc_G	186	seqrec	No	User	RGN Test	ON	Yes	3720								
A1GXFMAC759VRM	Collector	1	266	2016-03-05T14:07:53-08:00	2	1	Stimuli/versionBstim.txt	Procedure/versionBproc.txt	Tetris		JACKHAMMER		JACKHAMMER	OFF	NPCI_AdHoc_G	197	seqrec	No	User	RGN Test	ON	No	1250								
A1GXFMAC759VRM	Collector	1	267	2016-03-05T14:07:55-08:00	2	1	Stimuli/versionBstim.txt	Procedure/versionBproc.txt	Tetris		RAISIN		RAISIN	OFF	NPLI_Cat_G	149	seqrec	No	User	RGN Test	ON	No	970								
A1GXFMAC759VRM	Collector	1	268	2016-03-05T14:07:58-08:00	3	1	Stimuli/versionBstim.txt	Procedure/versionBproc.txt	Tetris		MOVIE		MOVIE	OFF	NPLI_Unrel_G	179	seqrec	No	User	RGN Test	ON	No	1000								
A1GXFMAC759VRM	Collector	1	269	2016-03-05T14:08:03-08:00	5	1	Stimuli/versionBstim.txt	Procedure/versionBproc.txt	Tetris		WATER		WATER	OFF	CI_AdHoc_G	273	seqrec	No	User	RGN Test	ON	Yes	4460								
A1GXFMAC759VRM	Collector	1	270	2016-03-05T14:08:06-08:00	3	1	Stimuli/versionBstim.txt	Procedure/versionBproc.txt	Tetris		ASPHALT		ASPHALT	OFF	LI_AdHoc_G	254	seqrec	No	User	RGN Test	ON	Yes	1040								
A1GXFMAC759VRM	Collector	1	271	2016-03-05T14:08:09-08:00	3	1	Stimuli/versionBstim.txt	Procedure/versionBproc.txt	Tetris		CROW		CROW	OFF	CI_AdHoc_G	296	seqrec	No	User	RGN Test	ON	No	1530								
A1GXFMAC759VRM	Collector	1	272	2016-03-05T14:08:11-08:00	2	1	Stimuli/versionBstim.txt	Procedure/versionBproc.txt	Tetris		DIAGRAM		DIAGRAM	OFF	CI_Unrel_G	282	seqrec	No	User	RGN Test	ON	No	770								
A1GXFMAC759VRM	Collector	1	273	2016-03-05T14:08:15-08:00	4	1	Stimuli/versionBstim.txt	Procedure/versionBproc.txt	Tetris		CAT		CAT	OFF	NPCI_Cat_G	202	seqrec	No	User	RGN Test	ON	No	2260								
A1GXFMAC759VRM	Collector	1	274	2016-03-05T14:08:18-08:00	3	1	Stimuli/versionBstim.txt	Procedure/versionBproc.txt	Tetris		COAST		COAST	OFF	NPCI_Unrel_G	208	seqrec	No	User	RGN Test	ON	No	1660								
A1GXFMAC759VRM	Collector	1	275	2016-03-05T14:08:20-08:00	2	1	Stimuli/versionBstim.txt	Procedure/versionBproc.txt	Tetris		CAULIFLOWER		CAULIFLOWER	OFF	LI_Cat_G	225	seqrec	No	User	RGN Test	ON	Yes	930								
A1GXFMAC759VRM	Collector	1	276	2016-03-05T14:08:23-08:00	3	1	Stimuli/versionBstim.txt	Procedure/versionBproc.txt	Tetris		GASOLINE		GASOLINE	OFF	LI_AdHoc_G	219	seqrec	No	User	RGN Test	ON	Yes	2040								
A1GXFMAC759VRM	Collector	1	277	2016-03-05T14:08:27-08:00	4	1	Stimuli/versionBstim.txt	Procedure/versionBproc.txt	Tetris		PUCK		PUCK	OFF	LI_AdHoc_G	252	seqrec	No	User	RGN Test	ON	Yes	1390								
A1GXFMAC759VRM	Collector	1	278	2016-03-05T14:08:29-08:00	2	1	Stimuli/versionBstim.txt	Procedure/versionBproc.txt	Tetris		TURNIP		TURNIP	OFF	LI_Cat_G	228	seqrec	No	User	RGN Test	ON	Yes	1320								
A1GXFMAC759VRM	Collector	1	279	2016-03-05T14:08:32-08:00	3	1	Stimuli/versionBstim.txt	Procedure/versionBproc.txt	Tetris		PEA		PEA	OFF	CI_Cat_G	277	seqrec	No	User	RGN Test	ON	No	1490								
A1GXFMAC759VRM	Collector	1	280	2016-03-05T14:08:34-08:00	2	1	Stimuli/versionBstim.txt	Procedure/versionBproc.txt	Tetris		VISE		VISE	OFF	LI_Cat_G	270	seqrec	No	User	RGN Test	ON	Yes	1010								
A1GXFMAC759VRM	Collector	1	281	2016-03-05T14:08:38-08:00	4	1	Stimuli/versionBstim.txt	Procedure/versionBproc.txt	Tetris		STADIUM		STADIUM	OFF	NPLI_Unrel_G	174	seqrec	No	User	RGN Test	ON	Yes	2630								
A1GXFMAC759VRM	Collector	1	282	2016-03-05T14:08:41-08:00	3	1	Stimuli/versionBstim.txt	Procedure/versionBproc.txt	Tetris		GRASS		GRASS	OFF	NPCI_AdHoc_G	182	seqrec	No	User	RGN Test	ON	No	2290								
A1GXFMAC759VRM	Collector	1	283	2016-03-05T14:08:45-08:00	4	1	Stimuli/versionBstim.txt	Procedure/versionBproc.txt	Tetris		NIGHT		NIGHT	OFF	CI_AdHoc_G	293	seqrec	No	User	RGN Test	ON	No	1040								
A1GXFMAC759VRM	Collector	1	284	2016-03-05T14:08:48-08:00	3	1	Stimuli/versionBstim.txt	Procedure/versionBproc.txt	Tetris		PAPERCLIP		PAPERCLIP	OFF	LI_Unrel_G	239	seqrec	No	User	RGN Test	ON	Yes	1240								
A1GXFMAC759VRM	Collector	1	285	2016-03-05T14:08:50-08:00	2	1	Stimuli/versionBstim.txt	Procedure/versionBproc.txt	Tetris		CLOCK		CLOCK	OFF	NPLI_Unrel_G	172	seqrec	No	User	RGN Test	ON	No	1220								
A1GXFMAC759VRM	Collector	1	286	2016-03-05T14:08:54-08:00	4	1	Stimuli/versionBstim.txt	Procedure/versionBproc.txt	Tetris		ASH		ASH	OFF	LI_AdHoc_G	258	seqrec	No	User	RGN Test	ON	Yes	1920								
A1GXFMAC759VRM	Collector	1	287	2016-03-05T14:08:56-08:00	2	1	Stimuli/versionBstim.txt	Procedure/versionBproc.txt	Tetris		GRAPE		GRAPE	OFF	NPCI_Cat_G	194	seqrec	No	User	RGN Test	ON	Yes	1290								
A1GXFMAC759VRM	Collector	1	288	2016-03-05T14:09:00-08:00	4	1	Stimuli/versionBstim.txt	Procedure/versionBproc.txt	Tetris		PUMPKIN		PUMPKIN	OFF	LI_Cat_G	230	seqrec	No	User	RGN Test	ON	Yes	1880								
A1GXFMAC759VRM	Collector	1	289	2016-03-05T14:09:02-08:00	2	1	Stimuli/versionBstim.txt	Procedure/versionBproc.txt	Tetris		SUNRISE		SUNRISE	OFF	NPLI_Unrel_G	181	seqrec	No	User	RGN Test	ON	No	990								
A1GXFMAC759VRM	Collector	1	290	2016-03-05T14:09:04-08:00	2	1	Stimuli/versionBstim.txt	Procedure/versionBproc.txt	Tetris		BAT		BAT	OFF	CI_AdHoc_G	294	seqrec	No	User	RGN Test	ON	Yes	1450								
A1GXFMAC759VRM	Collector	1	291	2016-03-05T14:09:09-08:00	5	1	Stimuli/versionBstim.txt	Procedure/versionBproc.txt	Tetris		ORANGE		ORANGE	OFF	NPCI_Cat_G	192	seqrec	No	User	RGN Test	ON	No	3110								
A1GXFMAC759VRM	Collector	1	292	2016-03-05T14:09:11-08:00	2	1	Stimuli/versionBstim.txt	Procedure/versionBproc.txt	Tetris		GOAT		GOAT	OFF	NPLI_Cat_G	166	seqrec	No	User	RGN Test	ON	No	1050								
A1GXFMAC759VRM	Collector	1	293	2016-03-05T14:09:13-08:00	2	1	Stimuli/versionBstim.txt	Procedure/versionBproc.txt	Tetris		INSECT		INSECT	OFF	NPLI_Unrel_G	137	seqrec	No	User	RGN Test	ON	No	900								
A1GXFMAC759VRM	Collector	1	294	2016-03-05T14:09:15-08:00	2	1	Stimuli/versionBstim.txt	Procedure/versionBproc.txt	Tetris		ENGINE		ENGINE	OFF	NPLI_Unrel_G	177	seqrec	No	User	RGN Test	ON	No	840								
A1GXFMAC759VRM	Collector	1	295	2016-03-05T14:09:17-08:00	2	1	Stimuli/versionBstim.txt	Procedure/versionBproc.txt	Tetris		POTATO		POTATO	OFF	LI_Cat_G	222	seqrec	No	User	RGN Test	ON	Yes	940								
A1GXFMAC759VRM	Collector	1	296	2016-03-05T14:09:20-08:00	3	1	Stimuli/versionBstim.txt	Procedure/versionBproc.txt	Tetris		SALAD		SALAD	OFF	NPLI_AdHoc_G	131	seqrec	No	User	RGN Test	ON	No	1380								
A1GXFMAC759VRM	Collector	1	297	2016-03-05T14:09:24-08:00	4	1	Stimuli/versionBstim.txt	Procedure/versionBproc.txt	Tetris		HORSE		HORSE	OFF	NPLI_Cat_G	162	seqrec	No	User	RGN Test	ON	No	3050								
A1GXFMAC759VRM	Collector	1	298	2016-03-05T14:09:28-08:00	4	1	Stimuli/versionBstim.txt	Procedure/versionBproc.txt	Tetris		SCREWDRIVER		SCREWDRIVER	OFF	CI_Cat_G	298	seqrec	No	User	RGN Test	ON	Yes	2620								
A1GXFMAC759VRM	Collector	1	299	2016-03-05T14:09:30-08:00	2	1	Stimuli/versionBstim.txt	Procedure/versionBproc.txt	Tetris		SHAMROCK		SHAMROCK	OFF	NPLI_AdHoc_G	125	seqrec	No	User	RGN Test	ON	No	1010								
A1GXFMAC759VRM	Collector	1	300	2016-03-05T14:09:33-08:00	3	1	Stimuli/versionBstim.txt	Procedure/versionBproc.txt	Tetris		CAKE		CAKE	OFF	NPLI_Unrel_G	173	seqrec	No	User	RGN Test	ON	No	1780								
A1GXFMAC759VRM	Collector	1	301	2016-03-05T14:09:38-08:00	5	1	Stimuli/versionBstim.txt	Procedure/versionBproc.txt	Tetris		MOSS		MOSS	OFF	NPLI_AdHoc_G	124	seqrec	No	User	RGN Test	ON	Yes	3030								
A1GXFMAC759VRM	Collector	1	302	2016-03-05T14:09:40-08:00	2	1	Stimuli/versionBstim.txt	Procedure/versionBproc.txt	Tetris		RUT		RUT	OFF	LI_Unrel_G	249	seqrec	No	User	RGN Test	ON	Yes	950								
A1GXFMAC759VRM	Collector	1	303	2016-03-05T14:09:45-08:00	5	1	Stimuli/versionBstim.txt	Procedure/versionBproc.txt	Tetris		ELEPHANT		ELEPHANT	OFF	NPLI_Cat_G	163	seqrec	No	User	RGN Test	ON	Yes	2480								
A1GXFMAC759VRM	Collector	1	304	2016-03-05T14:09:46-08:00	1	1	Stimuli/versionBstim.txt	Procedure/versionBproc.txt	Tetris		AWL		AWL	OFF	LI_Cat_G	267	seqrec	No	User	RGN Test	ON	Yes	820								
A1GXFMAC759VRM	Collector	1	305	2016-03-05T14:09:49-08:00	3	1	Stimuli/versionBstim.txt	Procedure/versionBproc.txt	Tetris		SCOUT		SCOUT	OFF	LI_Unrel_G	236	seqrec	No	User	RGN Test	ON	Yes	1230								
A1GXFMAC759VRM	Collector	1	306	2016-03-05T14:09:51-08:00	2	1	Stimuli/versionBstim.txt	Procedure/versionBproc.txt	Tetris		TREAT		TREAT	OFF	CI_Unrel_G	287	seqrec	No	User	RGN Test	ON	No	920								
A1GXFMAC759VRM	Collector	1	307	2016-03-05T14:09:54-08:00	3	1	Stimuli/versionBstim.txt	Procedure/versionBproc.txt	Tetris		SAW		SAW	OFF	CI_Cat_G	297	seqrec	No	User	RGN Test	ON	Yes	1100								
A1GXFMAC759VRM	Collector	1	308	2016-03-05T14:09:56-08:00	2	1	Stimuli/versionBstim.txt	Procedure/versionBproc.txt	Tetris		FUR		FUR	OFF	NPCI_Unrel_G	210	seqrec	No	User	RGN Test	ON	No	1030								
A1GXFMAC759VRM	Collector	1	309	2016-03-05T14:09:58-08:00	2	1	Stimuli/versionBstim.txt	Procedure/versionBproc.txt	Tetris		WOUND		WOUND	OFF	NPCI_Unrel_G	189	seqrec	No	User	RGN Test	ON	No	730								
A1GXFMAC759VRM	Collector	1	310	2016-03-05T14:10:00-08:00	2	1	Stimuli/versionBstim.txt	Procedure/versionBproc.txt	Tetris		EGGPLANT		EGGPLANT	OFF	LI_Cat_G	231	seqrec	No	User	RGN Test	ON	Yes	1170								
A1GXFMAC759VRM	Collector	1	311	2016-03-05T14:10:04-08:00	4	1	Stimuli/versionBstim.txt	Procedure/versionBproc.txt	Tetris		FIRE		FIRE	OFF	LI_Unrel_G	251	seqrec	No	User	RGN Test	ON	No	2150								
A1GXFMAC759VRM	Collector	1	312	2016-03-05T14:10:06-08:00	2	1	Stimuli/versionBstim.txt	Procedure/versionBproc.txt	Tetris		LAKE		LAKE	OFF	LI_AdHoc_G	217	seqrec	No	User	RGN Test	ON	Yes	1130								
A1GXFMAC759VRM	Collector	1	313	2016-03-05T14:10:09-08:00	3	1	Stimuli/versionBstim.txt	Procedure/versionBproc.txt	Tetris		CRYPT		CRYPT	OFF	NPLI_Unrel_G	135	seqrec	No	User	RGN Test	ON	Yes	1350								
A1GXFMAC759VRM	Collector	1	314	2016-03-05T14:10:11-08:00	2	1	Stimuli/versionBstim.txt	Procedure/versionBproc.txt	Tetris		WHIP		WHIP	OFF	LI_Unrel_G	250	seqrec	No	User	RGN Test	ON	No	830								
A1GXFMAC759VRM	Collector	1	315	2016-03-05T14:10:15-08:00	4	1	Stimuli/versionBstim.txt	Procedure/versionBproc.txt	Tetris		SHORE		SHORE	OFF	NPLI_Unrel_G	178	seqrec	No	User	RGN Test	ON	No	2630								
A1GXFMAC759VRM	Collector	1	316	2016-03-05T14:10:17-08:00	2	1	Stimuli/versionBstim.txt	Procedure/versionBproc.txt	Tetris		PEPPERS		PEPPERS	OFF	LI_Cat_G	229	seqrec	No	User	RGN Test	ON	Yes	870								
A1GXFMAC759VRM	Collector	1	317	2016-03-05T14:10:19-08:00	2	1	Stimuli/versionBstim.txt	Procedure/versionBproc.txt	Tetris		HOT CHOCOLATE		HOT CHOCOLATE	OFF	LI_AdHoc_G	216	seqrec	No	User	RGN Test	ON	Yes	830								
A1GXFMAC759VRM	Collector	1	318	2016-03-05T14:10:21-08:00	2	1	Stimuli/versionBstim.txt	Procedure/versionBproc.txt	Tetris		BANANA		BANANA	OFF	NPCI_Cat_G	193	seqrec	No	User	RGN Test	ON	No	1150								
A1GXFMAC759VRM	Collector	1	319	2016-03-05T14:10:23-08:00	2	1	Stimuli/versionBstim.txt	Procedure/versionBproc.txt	Tetris		LEOPARD		LEOPARD	OFF	NPLI_Cat_G	169	seqrec	No	User	RGN Test	ON	No	960								
A1GXFMAC759VRM	Collector	1	320	2016-03-05T14:10:25-08:00	2	1	Stimuli/versionBstim.txt	Procedure/versionBproc.txt	Tetris		MANHOLE		MANHOLE	OFF	NPLI_Unrel_G	141	seqrec	No	User	RGN Test	ON	No	850								
A1GXFMAC759VRM	Collector	1	321	2016-03-05T14:10:28-08:00	3	1	Stimuli/versionBstim.txt	Procedure/versionBproc.txt	Tetris		n/a	n/a	n/a	n/a	n/a	0	Instruct	N/A	User	Click the button below to continue.	OFF		1370								
A1GXFMAC759VRM	Collector	1	322	2016-03-05T14:11:00-08:00	32	1	Stimuli/versionBstim.txt	Procedure/versionBproc.txt	Tetris		n/a	n/a	n/a	n/a	n/a	0	Instruct	N/A	User	You again will be presented with 6 lists of words, each containing 20 words, but now you will complete a recall memory test following each list. After each list is presented, you will type in the words you saw on that list into a dialog box. You will have 1 minute to recall each list. The computer will prompt you when your time is up. Click the button below to begin the first list.	OFF		28860								
A1GXFMAC759VRM	Collector	1	323	2016-03-05T14:11:07-08:00	7	1	Stimuli/versionBstim.txt	Procedure/versionBproc.txt	Tetris		FLURRY		FLURRY	OFF	Unrel_Recall_L1	307	Study	No	3	Unrel_Recall_L1	ON		3000								
A1GXFMAC759VRM	Collector	1	324	2016-03-05T14:11:13-08:00	6	1	Stimuli/versionBstim.txt	Procedure/versionBproc.txt	Tetris		AVENUE		AVENUE	OFF	Unrel_Recall_L1	305	Study	No	3	Unrel_Recall_L1	ON		3000								
A1GXFMAC759VRM	Collector	1	325	2016-03-05T14:11:17-08:00	4	1	Stimuli/versionBstim.txt	Procedure/versionBproc.txt	Tetris		CANYON		CANYON	OFF	Unrel_Recall_L1	313	Study	No	3	Unrel_Recall_L1	ON		3000								
A1GXFMAC759VRM	Collector	1	326	2016-03-05T14:11:21-08:00	4	1	Stimuli/versionBstim.txt	Procedure/versionBproc.txt	Tetris		WINNER		WINNER	OFF	Unrel_Recall_L1	321	Study	No	3	Unrel_Recall_L1	ON		3000								
A1GXFMAC759VRM	Collector	1	327	2016-03-05T14:11:25-08:00	4	1	Stimuli/versionBstim.txt	Procedure/versionBproc.txt	Tetris		LANCE		LANCE	OFF	Unrel_Recall_L1	316	Study	No	3	Unrel_Recall_L1	ON		3000								
A1GXFMAC759VRM	Collector	1	328	2016-03-05T14:11:30-08:00	5	1	Stimuli/versionBstim.txt	Procedure/versionBproc.txt	Tetris		GONG		GONG	OFF	Unrel_Recall_L1	310	Study	No	3	Unrel_Recall_L1	ON		3000								
A1GXFMAC759VRM	Collector	1	329	2016-03-05T14:11:34-08:00	4	1	Stimuli/versionBstim.txt	Procedure/versionBproc.txt	Tetris		KISS		KISS	OFF	Unrel_Recall_L1	312	Study	No	3	Unrel_Recall_L1	ON		3000								
A1GXFMAC759VRM	Collector	1	330	2016-03-05T14:11:39-08:00	5	1	Stimuli/versionBstim.txt	Procedure/versionBproc.txt	Tetris		GIN		GIN	OFF	Unrel_Recall_L1	318	Study	No	3	Unrel_Recall_L1	ON		3000								
A1GXFMAC759VRM	Collector	1	331	2016-03-05T14:11:43-08:00	4	1	Stimuli/versionBstim.txt	Procedure/versionBproc.txt	Tetris		WRAP		WRAP	OFF	Unrel_Recall_L1	302	Study	No	3	Unrel_Recall_L1	ON		3000								
A1GXFMAC759VRM	Collector	1	332	2016-03-05T14:11:47-08:00	4	1	Stimuli/versionBstim.txt	Procedure/versionBproc.txt	Tetris		WINCH		WINCH	OFF	Unrel_Recall_L1	309	Study	No	3	Unrel_Recall_L1	ON		3000								
A1GXFMAC759VRM	Collector	1	333	2016-03-05T14:11:51-08:00	4	1	Stimuli/versionBstim.txt	Procedure/versionBproc.txt	Tetris		BLAZE		BLAZE	OFF	Unrel_Recall_L1	319	Study	No	3	Unrel_Recall_L1	ON		3000								
A1GXFMAC759VRM	Collector	1	334	2016-03-05T14:11:56-08:00	5	1	Stimuli/versionBstim.txt	Procedure/versionBproc.txt	Tetris		CEREAL		CEREAL	OFF	Unrel_Recall_L1	315	Study	No	3	Unrel_Recall_L1	ON		3000								
A1GXFMAC759VRM	Collector	1	335	2016-03-05T14:12:00-08:00	4	1	Stimuli/versionBstim.txt	Procedure/versionBproc.txt	Tetris		DETOUR		DETOUR	OFF	Unrel_Recall_L1	303	Study	No	3	Unrel_Recall_L1	ON		3000								
A1GXFMAC759VRM	Collector	1	336	2016-03-05T14:12:04-08:00	4	1	Stimuli/versionBstim.txt	Procedure/versionBproc.txt	Tetris		DWARF		DWARF	OFF	Unrel_Recall_L1	317	Study	No	3	Unrel_Recall_L1	ON		3000								
A1GXFMAC759VRM	Collector	1	337	2016-03-05T14:12:08-08:00	4	1	Stimuli/versionBstim.txt	Procedure/versionBproc.txt	Tetris		WORKSHOP		WORKSHOP	OFF	Unrel_Recall_L1	320	Study	No	3	Unrel_Recall_L1	ON		3000								
A1GXFMAC759VRM	Collector	1	338	2016-03-05T14:12:13-08:00	5	1	Stimuli/versionBstim.txt	Procedure/versionBproc.txt	Tetris		FOSSIL		FOSSIL	OFF	Unrel_Recall_L1	314	Study	No	3	Unrel_Recall_L1	ON		3000								
A1GXFMAC759VRM	Collector	1	339	2016-03-05T14:12:18-08:00	5	1	Stimuli/versionBstim.txt	Procedure/versionBproc.txt	Tetris		MARSH		MARSH	OFF	Unrel_Recall_L1	304	Study	No	3	Unrel_Recall_L1	ON		3000								
A1GXFMAC759VRM	Collector	1	340	2016-03-05T14:12:22-08:00	4	1	Stimuli/versionBstim.txt	Procedure/versionBproc.txt	Tetris		CELLOPHANE		CELLOPHANE	OFF	Unrel_Recall_L1	308	Study	No	3	Unrel_Recall_L1	ON		3000								
A1GXFMAC759VRM	Collector	1	341	2016-03-05T14:12:26-08:00	4	1	Stimuli/versionBstim.txt	Procedure/versionBproc.txt	Tetris		JAR		JAR	OFF	Unrel_Recall_L1	311	Study	No	3	Unrel_Recall_L1	ON		3000								
A1GXFMAC759VRM	Collector	1	342	2016-03-05T14:12:30-08:00	4	1	Stimuli/versionBstim.txt	Procedure/versionBproc.txt	Tetris		JOKE		JOKE	OFF	Unrel_Recall_L1	306	Study	No	3	Unrel_Recall_L1	ON		3000								
A1GXFMAC759VRM	Collector	1	343	2016-03-05T14:12:33-08:00	3	1	Stimuli/versionBstim.txt	Procedure/versionBproc.txt	Tetris		n/a	n/a	n/a	n/a	n/a	0	Instruct	N/A	User	Recall Instructions: Recall the words that you saw from memory by typing them into the dialog box on the next screen. You will have 1 minute. Click the button below to begin.	OFF		1580								
A1GXFMAC759VRM	Collector	1	344	2016-03-05T14:13:34-08:00	61	1	Stimuli/versionBstim.txt	Procedure/versionBproc.txt	Tetris		n/a	n/a	n/a	n/a	n/a	0	freerecall	N/A	60	Recall now in the box. Spelling will not be counted against you. The computer will advance when your minute is up.	OFF	Avenue Caynon Furry Winch Jar Joke Cellophane	60000	1070	14740						
A1GXFMAC759VRM	Collector	1	345	2016-03-05T14:13:48-08:00	14	1	Stimuli/versionBstim.txt	Procedure/versionBproc.txt	Tetris		n/a	n/a	n/a	n/a	n/a	0	Instruct	N/A	User	Click the button below for the next list.	OFF		12510								
A1GXFMAC759VRM	Collector	1	346	2016-03-05T14:13:53-08:00	5	1	Stimuli/versionBstim.txt	Procedure/versionBproc.txt	Tetris		LOOFAH		LOOFAH	OFF	AdHoc_Recall_L2	340	Study	No	3	AdHoc_Recall_L2	ON		3000								
A1GXFMAC759VRM	Collector	1	347	2016-03-05T14:13:58-08:00	5	1	Stimuli/versionBstim.txt	Procedure/versionBproc.txt	Tetris		MAT		MAT	OFF	AdHoc_Recall_L2	324	Study	No	3	AdHoc_Recall_L2	ON		3000								
A1GXFMAC759VRM	Collector	1	348	2016-03-05T14:14:03-08:00	5	1	Stimuli/versionBstim.txt	Procedure/versionBproc.txt	Tetris		TWEEZERS		TWEEZERS	OFF	AdHoc_Recall_L2	338	Study	No	3	AdHoc_Recall_L2	ON		3000								
A1GXFMAC759VRM	Collector	1	349	2016-03-05T14:14:07-08:00	4	1	Stimuli/versionBstim.txt	Procedure/versionBproc.txt	Tetris		MEDICINE		MEDICINE	OFF	AdHoc_Recall_L2	327	Study	No	3	AdHoc_Recall_L2	ON		3000								
A1GXFMAC759VRM	Collector	1	350	2016-03-05T14:14:15-08:00	8	1	Stimuli/versionBstim.txt	Procedure/versionBproc.txt	Tetris		LOTION		LOTION	OFF	AdHoc_Recall_L2	330	Study	No	3	AdHoc_Recall_L2	ON		3000								
A1GXFMAC759VRM	Collector	1	351	2016-03-05T14:14:19-08:00	4	1	Stimuli/versionBstim.txt	Procedure/versionBproc.txt	Tetris		HAIR DRYER		HAIR DRYER	OFF	AdHoc_Recall_L2	339	Study	No	3	AdHoc_Recall_L2	ON		3000								
A1GXFMAC759VRM	Collector	1	352	2016-03-05T14:14:24-08:00	5	1	Stimuli/versionBstim.txt	Procedure/versionBproc.txt	Tetris		SOAP		SOAP	OFF	AdHoc_Recall_L2	322	Study	No	3	AdHoc_Recall_L2	ON		3000								
A1GXFMAC759VRM	Collector	1	353	2016-03-05T14:14:28-08:00	4	1	Stimuli/versionBstim.txt	Procedure/versionBproc.txt	Tetris		SHAVER		SHAVER	OFF	AdHoc_Recall_L2	333	Study	No	3	AdHoc_Recall_L2	ON		3000								
A1GXFMAC759VRM	Collector	1	354	2016-03-05T14:14:32-08:00	4	1	Stimuli/versionBstim.txt	Procedure/versionBproc.txt	Tetris		CURLING IRON		CURLING IRON	OFF	AdHoc_Recall_L2	332	Study	No	3	AdHoc_Recall_L2	ON		3000								
A1GXFMAC759VRM	Collector	1	355	2016-03-05T14:14:36-08:00	4	1	Stimuli/versionBstim.txt	Procedure/versionBproc.txt	Tetris		COMB		COMB	OFF	AdHoc_Recall_L2	328	Study	No	3	AdHoc_Recall_L2	ON		3000								
A1GXFMAC759VRM	Collector	1	356	2016-03-05T14:14:41-08:00	5	1	Stimuli/versionBstim.txt	Procedure/versionBproc.txt	Tetris		TILE		TILE	OFF	AdHoc_Recall_L2	325	Study	No	3	AdHoc_Recall_L2	ON		3000								
A1GXFMAC759VRM	Collector	1	357	2016-03-05T14:14:45-08:00	4	1	Stimuli/versionBstim.txt	Procedure/versionBproc.txt	Tetris		FAUCET		FAUCET	OFF	AdHoc_Recall_L2	326	Study	No	3	AdHoc_Recall_L2	ON		3000								
A1GXFMAC759VRM	Collector	1	358	2016-03-05T14:14:49-08:00	4	1	Stimuli/versionBstim.txt	Procedure/versionBproc.txt	Tetris		MOUTHWASH		MOUTHWASH	OFF	AdHoc_Recall_L2	336	Study	No	3	AdHoc_Recall_L2	ON		3000								
A1GXFMAC759VRM	Collector	1	359	2016-03-05T14:14:54-08:00	5	1	Stimuli/versionBstim.txt	Procedure/versionBproc.txt	Tetris		PLUNGER		PLUNGER	OFF	AdHoc_Recall_L2	335	Study	No	3	AdHoc_Recall_L2	ON		3000								
A1GXFMAC759VRM	Collector	1	360	2016-03-05T14:14:59-08:00	5	1	Stimuli/versionBstim.txt	Procedure/versionBproc.txt	Tetris		SCALE		SCALE	OFF	AdHoc_Recall_L2	323	Study	No	3	AdHoc_Recall_L2	ON		3000								
A1GXFMAC759VRM	Collector	1	361	2016-03-05T14:15:03-08:00	4	1	Stimuli/versionBstim.txt	Procedure/versionBproc.txt	Tetris		CANDLE		CANDLE	OFF	AdHoc_Recall_L2	341	Study	No	3	AdHoc_Recall_L2	ON		3000								
A1GXFMAC759VRM	Collector	1	362	2016-03-05T14:15:07-08:00	4	1	Stimuli/versionBstim.txt	Procedure/versionBproc.txt	Tetris		SHAMPOO		SHAMPOO	OFF	AdHoc_Recall_L2	334	Study	No	3	AdHoc_Recall_L2	ON		3000								
A1GXFMAC759VRM	Collector	1	363	2016-03-05T14:15:12-08:00	5	1	Stimuli/versionBstim.txt	Procedure/versionBproc.txt	Tetris		VANITY		VANITY	OFF	AdHoc_Recall_L2	337	Study	No	3	AdHoc_Recall_L2	ON		3000								
A1GXFMAC759VRM	Collector	1	364	2016-03-05T14:15:16-08:00	4	1	Stimuli/versionBstim.txt	Procedure/versionBproc.txt	Tetris		DEODORANT		DEODORANT	OFF	AdHoc_Recall_L2	331	Study	No	3	AdHoc_Recall_L2	ON		3000								
A1GXFMAC759VRM	Collector	1	365	2016-03-05T14:15:20-08:00	4	1	Stimuli/versionBstim.txt	Procedure/versionBproc.txt	Tetris		BRUSH		BRUSH	OFF	AdHoc_Recall_L2	329	Study	No	3	AdHoc_Recall_L2	ON		3000								
A1GXFMAC759VRM	Collector	1	366	2016-03-05T14:15:23-08:00	3	1	Stimuli/versionBstim.txt	Procedure/versionBproc.txt	Tetris		n/a	n/a	n/a	n/a	n/a	0	Instruct	N/A	User	Recall Instructions: Recall the words that you saw from memory by typing them into the dialog box on the next screen. You will have 1 minute. Click the button below to begin.	OFF		1640								
A1GXFMAC759VRM	Collector	1	367	2016-03-05T14:16:25-08:00	62	1	Stimuli/versionBstim.txt	Procedure/versionBproc.txt	Tetris		n/a	n/a	n/a	n/a	n/a	0	freerecall	N/A	60	Recall now in the box. Spelling will not be counted against you. The computer will advance when your minute is up.	OFF	Loofah Lotion Tweezers Mat Medicine Shampoo Deodorant Tile Candle  <br />  <br /> Hairdryer Brush Curling Iron Plunger	60000	990	49670						
A1GXFMAC759VRM	Collector	1	368	2016-03-05T14:16:28-08:00	3	1	Stimuli/versionBstim.txt	Procedure/versionBproc.txt	Tetris		n/a	n/a	n/a	n/a	n/a	0	Instruct	N/A	User	Click the button below for the next list.	OFF		2170								
A1GXFMAC759VRM	Collector	1	369	2016-03-05T14:16:32-08:00	4	1	Stimuli/versionBstim.txt	Procedure/versionBproc.txt	Tetris		CHAINLINK		CHAINLINK	OFF	AdHoc_Recall_L3	350	Study	No	3	AdHoc_Recall_L3	ON		3000								
A1GXFMAC759VRM	Collector	1	370	2016-03-05T14:16:37-08:00	5	1	Stimuli/versionBstim.txt	Procedure/versionBproc.txt	Tetris		GUARD		GUARD	OFF	AdHoc_Recall_L3	349	Study	No	3	AdHoc_Recall_L3	ON		3000								
A1GXFMAC759VRM	Collector	1	371	2016-03-05T14:16:41-08:00	4	1	Stimuli/versionBstim.txt	Procedure/versionBproc.txt	Tetris		TATTOO		TATTOO	OFF	AdHoc_Recall_L3	358	Study	No	3	AdHoc_Recall_L3	ON		3000								
A1GXFMAC759VRM	Collector	1	372	2016-03-05T14:16:45-08:00	4	1	Stimuli/versionBstim.txt	Procedure/versionBproc.txt	Tetris		DETECTIVE		DETECTIVE	OFF	AdHoc_Recall_L3	361	Study	No	3	AdHoc_Recall_L3	ON		3000								
A1GXFMAC759VRM	Collector	1	373	2016-03-05T14:16:49-08:00	4	1	Stimuli/versionBstim.txt	Procedure/versionBproc.txt	Tetris		NEEDLE		NEEDLE	OFF	AdHoc_Recall_L3	359	Study	No	3	AdHoc_Recall_L3	ON		3000								
A1GXFMAC759VRM	Collector	1	374	2016-03-05T14:16:54-08:00	5	1	Stimuli/versionBstim.txt	Procedure/versionBproc.txt	Tetris		CIGARETTE		CIGARETTE	OFF	AdHoc_Recall_L3	360	Study	No	3	AdHoc_Recall_L3	ON		3000								
A1GXFMAC759VRM	Collector	1	375	2016-03-05T14:16:58-08:00	4	1	Stimuli/versionBstim.txt	Procedure/versionBproc.txt	Tetris		WEIGHTS		WEIGHTS	OFF	AdHoc_Recall_L3	346	Study	No	3	AdHoc_Recall_L3	ON		3000								
A1GXFMAC759VRM	Collector	1	376	2016-03-05T14:17:02-08:00	4	1	Stimuli/versionBstim.txt	Procedure/versionBproc.txt	Tetris		BUNKBED		BUNKBED	OFF	AdHoc_Recall_L3	347	Study	No	3	AdHoc_Recall_L3	ON		3000								
A1GXFMAC759VRM	Collector	1	377	2016-03-05T14:17:06-08:00	4	1	Stimuli/versionBstim.txt	Procedure/versionBproc.txt	Tetris		INMATE		INMATE	OFF	AdHoc_Recall_L3	356	Study	No	3	AdHoc_Recall_L3	ON		3000								
A1GXFMAC759VRM	Collector	1	378	2016-03-05T14:17:11-08:00	5	1	Stimuli/versionBstim.txt	Procedure/versionBproc.txt	Tetris		CELL		CELL	OFF	AdHoc_Recall_L3	343	Study	No	3	AdHoc_Recall_L3	ON		3000								
A1GXFMAC759VRM	Collector	1	379	2016-03-05T14:17:15-08:00	4	1	Stimuli/versionBstim.txt	Procedure/versionBproc.txt	Tetris		FINGERPRINTS		FINGERPRINTS	OFF	AdHoc_Recall_L3	345	Study	No	3	AdHoc_Recall_L3	ON		3000								
A1GXFMAC759VRM	Collector	1	380	2016-03-05T14:17:20-08:00	5	1	Stimuli/versionBstim.txt	Procedure/versionBproc.txt	Tetris		CHAIN		CHAIN	OFF	AdHoc_Recall_L3	353	Study	No	3	AdHoc_Recall_L3	ON		3000								
A1GXFMAC759VRM	Collector	1	381	2016-03-05T14:17:24-08:00	4	1	Stimuli/versionBstim.txt	Procedure/versionBproc.txt	Tetris		FIGHTS		FIGHTS	OFF	AdHoc_Recall_L3	355	Study	No	3	AdHoc_Recall_L3	ON		3000								
A1GXFMAC759VRM	Collector	1	382	2016-03-05T14:17:28-08:00	4	1	Stimuli/versionBstim.txt	Procedure/versionBproc.txt	Tetris		OFFICER		OFFICER	OFF	AdHoc_Recall_L3	357	Study	No	3	AdHoc_Recall_L3	ON		3000								
A1GXFMAC759VRM	Collector	1	383	2016-03-05T14:17:32-08:00	4	1	Stimuli/versionBstim.txt	Procedure/versionBproc.txt	Tetris		CAFETERIA		CAFETERIA	OFF	AdHoc_Recall_L3	348	Study	No	3	AdHoc_Recall_L3	ON		3000								
A1GXFMAC759VRM	Collector	1	384	2016-03-05T14:17:37-08:00	5	1	Stimuli/versionBstim.txt	Procedure/versionBproc.txt	Tetris		TOWER		TOWER	OFF	AdHoc_Recall_L3	351	Study	No	3	AdHoc_Recall_L3	ON		3000								
A1GXFMAC759VRM	Collector	1	385	2016-03-05T14:17:41-08:00	4	1	Stimuli/versionBstim.txt	Procedure/versionBproc.txt	Tetris		SHACKLE		SHACKLE	OFF	AdHoc_Recall_L3	354	Study	No	3	AdHoc_Recall_L3	ON		3000								
A1GXFMAC759VRM	Collector	1	386	2016-03-05T14:17:45-08:00	4	1	Stimuli/versionBstim.txt	Procedure/versionBproc.txt	Tetris		BARS		BARS	OFF	AdHoc_Recall_L3	344	Study	No	3	AdHoc_Recall_L3	ON		3000								
A1GXFMAC759VRM	Collector	1	387	2016-03-05T14:17:49-08:00	4	1	Stimuli/versionBstim.txt	Procedure/versionBproc.txt	Tetris		ALARM		ALARM	OFF	AdHoc_Recall_L3	352	Study	No	3	AdHoc_Recall_L3	ON		3000								
A1GXFMAC759VRM	Collector	1	388	2016-03-05T14:17:54-08:00	5	1	Stimuli/versionBstim.txt	Procedure/versionBproc.txt	Tetris		PISTOL		PISTOL	OFF	AdHoc_Recall_L3	342	Study	No	3	AdHoc_Recall_L3	ON		3000								
A1GXFMAC759VRM	Collector	1	389	2016-03-05T14:18:00-08:00	6	1	Stimuli/versionBstim.txt	Procedure/versionBproc.txt	Tetris		n/a	n/a	n/a	n/a	n/a	0	Instruct	N/A	User	Recall Instructions: Recall the words that you saw from memory by typing them into the dialog box on the next screen. You will have 1 minute. Click the button below to begin.	OFF		2520								
A1GXFMAC759VRM	Collector	1	390	2016-03-05T14:19:02-08:00	62	1	Stimuli/versionBstim.txt	Procedure/versionBproc.txt	Tetris		n/a	n/a	n/a	n/a	n/a	0	freerecall	N/A	60	Recall now in the box. Spelling will not be counted against you. The computer will advance when your minute is up.	OFF	Chainlink, Chain, Guard, Tattoo, Detective, Prisoner, Bars, Tower, Inmate,  <br />  <br /> Pistol, Fight	60000	1080	28320						
A1GXFMAC759VRM	Collector	1	391	2016-03-05T14:19:13-08:00	11	1	Stimuli/versionBstim.txt	Procedure/versionBproc.txt	Tetris		n/a	n/a	n/a	n/a	n/a	0	Instruct	N/A	User	Click the button below for the next list.	OFF		9960								
A1GXFMAC759VRM	Collector	1	392	2016-03-05T14:19:18-08:00	5	1	Stimuli/versionBstim.txt	Procedure/versionBproc.txt	Tetris		HOUSEBOAT		HOUSEBOAT	OFF	Cat_Recall_L4	373	Study	No	3	Cat_Recall_L4	ON		3000								
A1GXFMAC759VRM	Collector	1	393	2016-03-05T14:19:22-08:00	4	1	Stimuli/versionBstim.txt	Procedure/versionBproc.txt	Tetris		PENTHOUSE		PENTHOUSE	OFF	Cat_Recall_L4	380	Study	No	3	Cat_Recall_L4	ON		3000								
A1GXFMAC759VRM	Collector	1	394	2016-03-05T14:19:26-08:00	4	1	Stimuli/versionBstim.txt	Procedure/versionBproc.txt	Tetris		MOTEL		MOTEL	OFF	Cat_Recall_L4	364	Study	No	3	Cat_Recall_L4	ON		3000								
A1GXFMAC759VRM	Collector	1	395	2016-03-05T14:19:30-08:00	4	1	Stimuli/versionBstim.txt	Procedure/versionBproc.txt	Tetris		BARRACKS		BARRACKS	OFF	Cat_Recall_L4	381	Study	No	3	Cat_Recall_L4	ON		3000								
A1GXFMAC759VRM	Collector	1	396	2016-03-05T14:19:35-08:00	5	1	Stimuli/versionBstim.txt	Procedure/versionBproc.txt	Tetris		COTTAGE		COTTAGE	OFF	Cat_Recall_L4	367	Study	No	3	Cat_Recall_L4	ON		3000								
A1GXFMAC759VRM	Collector	1	397	2016-03-05T14:19:39-08:00	4	1	Stimuli/versionBstim.txt	Procedure/versionBproc.txt	Tetris		LODGE		LODGE	OFF	Cat_Recall_L4	370	Study	No	3	Cat_Recall_L4	ON		3000								
A1GXFMAC759VRM	Collector	1	398	2016-03-05T14:19:43-08:00	4	1	Stimuli/versionBstim.txt	Procedure/versionBproc.txt	Tetris		TRAILER		TRAILER	OFF	Cat_Recall_L4	363	Study	No	3	Cat_Recall_L4	ON		3000								
A1GXFMAC759VRM	Collector	1	399	2016-03-05T14:19:49-08:00	6	1	Stimuli/versionBstim.txt	Procedure/versionBproc.txt	Tetris		DUPLEX		DUPLEX	OFF	Cat_Recall_L4	377	Study	No	3	Cat_Recall_L4	ON		3000								
A1GXFMAC759VRM	Collector	1	400	2016-03-05T14:19:55-08:00	6	1	Stimuli/versionBstim.txt	Procedure/versionBproc.txt	Tetris		BUNGALOW		BUNGALOW	OFF	Cat_Recall_L4	374	Study	No	3	Cat_Recall_L4	ON		3000								
A1GXFMAC759VRM	Collector	1	401	2016-03-05T14:19:59-08:00	4	1	Stimuli/versionBstim.txt	Procedure/versionBproc.txt	Tetris		DORM		DORM	OFF	Cat_Recall_L4	368	Study	No	3	Cat_Recall_L4	ON		3000								
A1GXFMAC759VRM	Collector	1	402	2016-03-05T14:20:04-08:00	5	1	Stimuli/versionBstim.txt	Procedure/versionBproc.txt	Tetris		TEPEE		TEPEE	OFF	Cat_Recall_L4	371	Study	No	3	Cat_Recall_L4	ON		3000								
A1GXFMAC759VRM	Collector	1	403	2016-03-05T14:20:08-08:00	4	1	Stimuli/versionBstim.txt	Procedure/versionBproc.txt	Tetris		CASTLE		CASTLE	OFF	Cat_Recall_L4	372	Study	No	3	Cat_Recall_L4	ON		3000								
A1GXFMAC759VRM	Collector	1	404	2016-03-05T14:20:12-08:00	4	1	Stimuli/versionBstim.txt	Procedure/versionBproc.txt	Tetris		TOWNHOME		TOWNHOME	OFF	Cat_Recall_L4	378	Study	No	3	Cat_Recall_L4	ON		3000								
A1GXFMAC759VRM	Collector	1	405	2016-03-05T14:20:17-08:00	5	1	Stimuli/versionBstim.txt	Procedure/versionBproc.txt	Tetris		PALACE		PALACE	OFF	Cat_Recall_L4	379	Study	No	3	Cat_Recall_L4	ON		3000								
A1GXFMAC759VRM	Collector	1	406	2016-03-05T14:20:21-08:00	4	1	Stimuli/versionBstim.txt	Procedure/versionBproc.txt	Tetris		SHACK 		SHACK 	OFF	Cat_Recall_L4	365	Study	No	3	Cat_Recall_L4	ON		3000								
A1GXFMAC759VRM	Collector	1	407	2016-03-05T14:20:25-08:00	4	1	Stimuli/versionBstim.txt	Procedure/versionBproc.txt	Tetris		IGLOO		IGLOO	OFF	Cat_Recall_L4	369	Study	No	3	Cat_Recall_L4	ON		3000								
A1GXFMAC759VRM	Collector	1	408	2016-03-05T14:20:29-08:00	4	1	Stimuli/versionBstim.txt	Procedure/versionBproc.txt	Tetris		BUILDING		BUILDING	OFF	Cat_Recall_L4	376	Study	No	3	Cat_Recall_L4	ON		3000								
A1GXFMAC759VRM	Collector	1	409	2016-03-05T14:20:34-08:00	5	1	Stimuli/versionBstim.txt	Procedure/versionBproc.txt	Tetris		ROOM		ROOM	OFF	Cat_Recall_L4	375	Study	No	3	Cat_Recall_L4	ON		3000								
A1GXFMAC759VRM	Collector	1	410	2016-03-05T14:20:39-08:00	5	1	Stimuli/versionBstim.txt	Procedure/versionBproc.txt	Tetris		HOTEL		HOTEL	OFF	Cat_Recall_L4	362	Study	No	3	Cat_Recall_L4	ON		3000								
A1GXFMAC759VRM	Collector	1	411	2016-03-05T14:20:45-08:00	6	1	Stimuli/versionBstim.txt	Procedure/versionBproc.txt	Tetris		MANSION		MANSION	OFF	Cat_Recall_L4	366	Study	No	3	Cat_Recall_L4	ON		3000								
A1GXFMAC759VRM	Collector	1	412	2016-03-05T14:20:48-08:00	3	1	Stimuli/versionBstim.txt	Procedure/versionBproc.txt	Tetris		n/a	n/a	n/a	n/a	n/a	0	Instruct	N/A	User	Recall Instructions: Recall the words that you saw from memory by typing them into the dialog box on the next screen. You will have 1 minute. Click the button below to begin.	OFF		1840								
A1GXFMAC759VRM	Collector	1	413	2016-03-05T14:21:49-08:00	61	1	Stimuli/versionBstim.txt	Procedure/versionBproc.txt	Tetris		n/a	n/a	n/a	n/a	n/a	0	freerecall	N/A	60	Recall now in the box. Spelling will not be counted against you. The computer will advance when your minute is up.	OFF	Houseboat, Penthouse, Motel, Hotel, Cottage, Lodge, Bungalow,  <br />  <br /> Townhome, Castle, Mansion, Palace, Shack, Dorm, Room, Teepee	60000	940	42650						
A1GXFMAC759VRM	Collector	1	414	2016-03-05T14:21:57-08:00	8	1	Stimuli/versionBstim.txt	Procedure/versionBproc.txt	Tetris		n/a	n/a	n/a	n/a	n/a	0	Instruct	N/A	User	Click the button below for the next list.	OFF		6430								
A1GXFMAC759VRM	Collector	1	415	2016-03-05T14:22:01-08:00	4	1	Stimuli/versionBstim.txt	Procedure/versionBproc.txt	Tetris		SCYTHE		SCYTHE	OFF	Cat_Recall_L5	398	Study	No	3	Cat_Recall_L5	ON		3000								
A1GXFMAC759VRM	Collector	1	416	2016-03-05T14:22:05-08:00	4	1	Stimuli/versionBstim.txt	Procedure/versionBproc.txt	Tetris		SEEDS		SEEDS	OFF	Cat_Recall_L5	386	Study	No	3	Cat_Recall_L5	ON		3000								
A1GXFMAC759VRM	Collector	1	417	2016-03-05T14:22:10-08:00	5	1	Stimuli/versionBstim.txt	Procedure/versionBproc.txt	Tetris		CLIPPERS		CLIPPERS	OFF	Cat_Recall_L5	395	Study	No	3	Cat_Recall_L5	ON		3000								
A1GXFMAC759VRM	Collector	1	418	2016-03-05T14:22:15-08:00	5	1	Stimuli/versionBstim.txt	Procedure/versionBproc.txt	Tetris		PICK		PICK	OFF	Cat_Recall_L5	383	Study	No	3	Cat_Recall_L5	ON		3000								
A1GXFMAC759VRM	Collector	1	419	2016-03-05T14:22:19-08:00	4	1	Stimuli/versionBstim.txt	Procedure/versionBproc.txt	Tetris		SPRINKLER		SPRINKLER	OFF	Cat_Recall_L5	391	Study	No	3	Cat_Recall_L5	ON		3000								
A1GXFMAC759VRM	Collector	1	420	2016-03-05T14:22:23-08:00	4	1	Stimuli/versionBstim.txt	Procedure/versionBproc.txt	Tetris		SPADE		SPADE	OFF	Cat_Recall_L5	382	Study	No	3	Cat_Recall_L5	ON		3000								
A1GXFMAC759VRM	Collector	1	421	2016-03-05T14:22:28-08:00	5	1	Stimuli/versionBstim.txt	Procedure/versionBproc.txt	Tetris		BUCKET		BUCKET	OFF	Cat_Recall_L5	389	Study	No	3	Cat_Recall_L5	ON		3000								
A1GXFMAC759VRM	Collector	1	422	2016-03-05T14:22:32-08:00	4	1	Stimuli/versionBstim.txt	Procedure/versionBproc.txt	Tetris		PLANTER		PLANTER	OFF	Cat_Recall_L5	393	Study	No	3	Cat_Recall_L5	ON		3000								
A1GXFMAC759VRM	Collector	1	423	2016-03-05T14:22:36-08:00	4	1	Stimuli/versionBstim.txt	Procedure/versionBproc.txt	Tetris		PLOW		PLOW	OFF	Cat_Recall_L5	385	Study	No	3	Cat_Recall_L5	ON		3000								
A1GXFMAC759VRM	Collector	1	424	2016-03-05T14:22:40-08:00	4	1	Stimuli/versionBstim.txt	Procedure/versionBproc.txt	Tetris		PITCHFORK		PITCHFORK	OFF	Cat_Recall_L5	390	Study	No	3	Cat_Recall_L5	ON		3000								
A1GXFMAC759VRM	Collector	1	425	2016-03-05T14:22:45-08:00	5	1	Stimuli/versionBstim.txt	Procedure/versionBproc.txt	Tetris		MACHETE		MACHETE	OFF	Cat_Recall_L5	396	Study	No	3	Cat_Recall_L5	ON		3000								
A1GXFMAC759VRM	Collector	1	426	2016-03-05T14:22:49-08:00	4	1	Stimuli/versionBstim.txt	Procedure/versionBproc.txt	Tetris		TRIMMER		TRIMMER	OFF	Cat_Recall_L5	397	Study	No	3	Cat_Recall_L5	ON		3000								
A1GXFMAC759VRM	Collector	1	427	2016-03-05T14:22:53-08:00	4	1	Stimuli/versionBstim.txt	Procedure/versionBproc.txt	Tetris		BASKET		BASKET	OFF	Cat_Recall_L5	384	Study	No	3	Cat_Recall_L5	ON		3000								
A1GXFMAC759VRM	Collector	1	428	2016-03-05T14:22:58-08:00	5	1	Stimuli/versionBstim.txt	Procedure/versionBproc.txt	Tetris		TROWEL		TROWEL	OFF	Cat_Recall_L5	387	Study	No	3	Cat_Recall_L5	ON		3000								
A1GXFMAC759VRM	Collector	1	429	2016-03-05T14:23:02-08:00	4	1	Stimuli/versionBstim.txt	Procedure/versionBproc.txt	Tetris		SHEARS		SHEARS	OFF	Cat_Recall_L5	388	Study	No	3	Cat_Recall_L5	ON		3000								
A1GXFMAC759VRM	Collector	1	430	2016-03-05T14:23:06-08:00	4	1	Stimuli/versionBstim.txt	Procedure/versionBproc.txt	Tetris		SIEVE		SIEVE	OFF	Cat_Recall_L5	401	Study	No	3	Cat_Recall_L5	ON		3000								
A1GXFMAC759VRM	Collector	1	431	2016-03-05T14:23:10-08:00	4	1	Stimuli/versionBstim.txt	Procedure/versionBproc.txt	Tetris		EDGER		EDGER	OFF	Cat_Recall_L5	400	Study	No	3	Cat_Recall_L5	ON		3000								
A1GXFMAC759VRM	Collector	1	432	2016-03-05T14:23:15-08:00	5	1	Stimuli/versionBstim.txt	Procedure/versionBproc.txt	Tetris		COMPOST		COMPOST	OFF	Cat_Recall_L5	394	Study	No	3	Cat_Recall_L5	ON		3000								
A1GXFMAC759VRM	Collector	1	433	2016-03-05T14:23:19-08:00	4	1	Stimuli/versionBstim.txt	Procedure/versionBproc.txt	Tetris		WHEELBARROW		WHEELBARROW	OFF	Cat_Recall_L5	399	Study	No	3	Cat_Recall_L5	ON		3000								
A1GXFMAC759VRM	Collector	1	434	2016-03-05T14:23:25-08:00	6	1	Stimuli/versionBstim.txt	Procedure/versionBproc.txt	Tetris		CULTIVATOR		CULTIVATOR	OFF	Cat_Recall_L5	392	Study	No	3	Cat_Recall_L5	ON		3000								
A1GXFMAC759VRM	Collector	1	435	2016-03-05T14:23:28-08:00	3	1	Stimuli/versionBstim.txt	Procedure/versionBproc.txt	Tetris		n/a	n/a	n/a	n/a	n/a	0	Instruct	N/A	User	Recall Instructions: Recall the words that you saw from memory by typing them into the dialog box on the next screen. You will have 1 minute. Click the button below to begin.	OFF		1090								
A1GXFMAC759VRM	Collector	1	436	2016-03-05T14:24:30-08:00	62	1	Stimuli/versionBstim.txt	Procedure/versionBproc.txt	Tetris		n/a	n/a	n/a	n/a	n/a	0	freerecall	N/A	60	Recall now in the box. Spelling will not be counted against you. The computer will advance when your minute is up.	OFF	Scythe, Seeds, Clippers, Pick, Wheelbarrow, Planter, Shears, 	60000	1130	18670						
A1GXFMAC759VRM	Collector	1	437	2016-03-05T14:24:45-08:00	15	1	Stimuli/versionBstim.txt	Procedure/versionBproc.txt	Tetris		n/a	n/a	n/a	n/a	n/a	0	Instruct	N/A	User	Click the button below for the next list.	OFF		13490								
A1GXFMAC759VRM	Collector	1	438	2016-03-05T14:24:49-08:00	4	1	Stimuli/versionBstim.txt	Procedure/versionBproc.txt	Tetris		DAY		DAY	OFF	Unrel_Recall_L6	409	Study	No	3	Unrel_Recall_L6	ON		3000								
A1GXFMAC759VRM	Collector	1	439	2016-03-05T14:24:53-08:00	4	1	Stimuli/versionBstim.txt	Procedure/versionBproc.txt	Tetris		JACKPOT		JACKPOT	OFF	Unrel_Recall_L6	420	Study	No	3	Unrel_Recall_L6	ON		3000								
A1GXFMAC759VRM	Collector	1	440	2016-03-05T14:24:58-08:00	5	1	Stimuli/versionBstim.txt	Procedure/versionBproc.txt	Tetris		WIZARD		WIZARD	OFF	Unrel_Recall_L6	407	Study	No	3	Unrel_Recall_L6	ON		3000								
A1GXFMAC759VRM	Collector	1	441	2016-03-05T14:25:02-08:00	4	1	Stimuli/versionBstim.txt	Procedure/versionBproc.txt	Tetris		CLASS		CLASS	OFF	Unrel_Recall_L6	419	Study	No	3	Unrel_Recall_L6	ON		3000								
A1GXFMAC759VRM	Collector	1	442	2016-03-05T14:25:07-08:00	5	1	Stimuli/versionBstim.txt	Procedure/versionBproc.txt	Tetris		LADDER		LADDER	OFF	Unrel_Recall_L6	417	Study	No	3	Unrel_Recall_L6	ON		3000								
A1GXFMAC759VRM	Collector	1	443	2016-03-05T14:25:11-08:00	4	1	Stimuli/versionBstim.txt	Procedure/versionBproc.txt	Tetris		KNOCK		KNOCK	OFF	Unrel_Recall_L6	411	Study	No	3	Unrel_Recall_L6	ON		3000								
A1GXFMAC759VRM	Collector	1	444	2016-03-05T14:25:15-08:00	4	1	Stimuli/versionBstim.txt	Procedure/versionBproc.txt	Tetris		ANVIL		ANVIL	OFF	Unrel_Recall_L6	402	Study	No	3	Unrel_Recall_L6	ON		3000								
A1GXFMAC759VRM	Collector	1	445	2016-03-05T14:25:19-08:00	4	1	Stimuli/versionBstim.txt	Procedure/versionBproc.txt	Tetris		BROTH		BROTH	OFF	Unrel_Recall_L6	415	Study	No	3	Unrel_Recall_L6	ON		3000								
A1GXFMAC759VRM	Collector	1	446	2016-03-05T14:25:24-08:00	5	1	Stimuli/versionBstim.txt	Procedure/versionBproc.txt	Tetris		MASCOT		MASCOT	OFF	Unrel_Recall_L6	418	Study	No	3	Unrel_Recall_L6	ON		3000								
A1GXFMAC759VRM	Collector	1	447	2016-03-05T14:25:28-08:00	4	1	Stimuli/versionBstim.txt	Procedure/versionBproc.txt	Tetris		DOWEL		DOWEL	OFF	Unrel_Recall_L6	413	Study	No	3	Unrel_Recall_L6	ON		3000								
A1GXFMAC759VRM	Collector	1	448	2016-03-05T14:25:32-08:00	4	1	Stimuli/versionBstim.txt	Procedure/versionBproc.txt	Tetris		LASER		LASER	OFF	Unrel_Recall_L6	421	Study	No	3	Unrel_Recall_L6	ON		3000								
A1GXFMAC759VRM	Collector	1	449	2016-03-05T14:25:37-08:00	5	1	Stimuli/versionBstim.txt	Procedure/versionBproc.txt	Tetris		LANDMARK		LANDMARK	OFF	Unrel_Recall_L6	403	Study	No	3	Unrel_Recall_L6	ON		3000								
A1GXFMAC759VRM	Collector	1	450	2016-03-05T14:25:42-08:00	5	1	Stimuli/versionBstim.txt	Procedure/versionBproc.txt	Tetris		WINDSHIELD		WINDSHIELD	OFF	Unrel_Recall_L6	404	Study	No	3	Unrel_Recall_L6	ON		3000								
A1GXFMAC759VRM	Collector	1	451	2016-03-05T14:25:47-08:00	5	1	Stimuli/versionBstim.txt	Procedure/versionBproc.txt	Tetris		JAZZ		JAZZ	OFF	Unrel_Recall_L6	416	Study	No	3	Unrel_Recall_L6	ON		3000								
A1GXFMAC759VRM	Collector	1	452	2016-03-05T14:25:51-08:00	4	1	Stimuli/versionBstim.txt	Procedure/versionBproc.txt	Tetris		FOUL		FOUL	OFF	Unrel_Recall_L6	408	Study	No	3	Unrel_Recall_L6	ON		3000								
A1GXFMAC759VRM	Collector	1	453	2016-03-05T14:25:56-08:00	5	1	Stimuli/versionBstim.txt	Procedure/versionBproc.txt	Tetris		MAUVE		MAUVE	OFF	Unrel_Recall_L6	412	Study	No	3	Unrel_Recall_L6	ON		3000								
A1GXFMAC759VRM	Collector	1	454	2016-03-05T14:26:00-08:00	4	1	Stimuli/versionBstim.txt	Procedure/versionBproc.txt	Tetris		BLISTER		BLISTER	OFF	Unrel_Recall_L6	406	Study	No	3	Unrel_Recall_L6	ON		3000								
A1GXFMAC759VRM	Collector	1	455	2016-03-05T14:26:04-08:00	4	1	Stimuli/versionBstim.txt	Procedure/versionBproc.txt	Tetris		BOULDER		BOULDER	OFF	Unrel_Recall_L6	410	Study	No	3	Unrel_Recall_L6	ON		3000								
A1GXFMAC759VRM	Collector	1	456	2016-03-05T14:26:09-08:00	5	1	Stimuli/versionBstim.txt	Procedure/versionBproc.txt	Tetris		ZONE		ZONE	OFF	Unrel_Recall_L6	405	Study	No	3	Unrel_Recall_L6	ON		3000								
A1GXFMAC759VRM	Collector	1	457	2016-03-05T14:26:13-08:00	4	1	Stimuli/versionBstim.txt	Procedure/versionBproc.txt	Tetris		IRON		IRON	OFF	Unrel_Recall_L6	414	Study	No	3	Unrel_Recall_L6	ON		3000								
A1GXFMAC759VRM	Collector	1	458	2016-03-05T14:26:16-08:00	3	1	Stimuli/versionBstim.txt	Procedure/versionBproc.txt	Tetris		n/a	n/a	n/a	n/a	n/a	0	Instruct	N/A	User	Recall Instructions: Recall the words that you saw from memory by typing them into the dialog box on the next screen. You will have 1 minute. Click the button below to begin.	OFF		1880								
A1GXFMAC759VRM	Collector	1	459	2016-03-05T14:27:19-08:00	63	1	Stimuli/versionBstim.txt	Procedure/versionBproc.txt	Tetris		n/a	n/a	n/a	n/a	n/a	0	freerecall	N/A	60	Recall now in the box. Spelling will not be counted against you. The computer will advance when your minute is up.	OFF	Day, Jackpot, Wizard, Class, Anvil, Ladder, 	60000	1250	14840						
A1GXFMAC759VRM	Collector	1	460	2016-03-05T14:27:34-08:00	15	1	Stimuli/versionBstim.txt	Procedure/versionBproc.txt	Tetris		n/a	n/a	n/a	n/a	n/a	0	Instruct	N/A	User	Now you will complete a recognition memory test based on the last 6 lists that you have studied. A word will be displayed on the computer screen and you are to decide whether the word was studied in the last 6 lists. If the word was studied, click the "yes" button. If the word was not studied, click the "no" button. Respond as quickly as possible without compromising accuracy.	OFF		13900								
A1GXFMAC759VRM	Collector	1	461	2016-03-05T14:27:36-08:00	2	1	Stimuli/versionBstim.txt	Procedure/versionBproc.txt	Tetris		n/a	n/a	n/a	n/a	n/a	0	Instruct	N/A	User	Click the button below to begin the test.	OFF		1300								
A1GXFMAC759VRM	Collector	1	462	2016-03-05T14:27:40-08:00	4	1	Stimuli/versionBstim.txt	Procedure/versionBproc.txt	Tetris		PLUNGER		PLUNGER	OFF	LI_AdHoc_Recall	528	seqrec	No	User	RGN Test	ON	Yes	1930								
A1GXFMAC759VRM	Collector	1	463	2016-03-05T14:27:43-08:00	3	1	Stimuli/versionBstim.txt	Procedure/versionBproc.txt	Tetris		OFFICER		OFFICER	OFF	LI_AdHoc_Recall	539	seqrec	No	User	RGN Test	ON	Yes	2240								
A1GXFMAC759VRM	Collector	1	464	2016-03-05T14:27:47-08:00	4	1	Stimuli/versionBstim.txt	Procedure/versionBproc.txt	Tetris		BUCKET		BUCKET	OFF	LI_Cat_Recall	555	seqrec	No	User	RGN Test	ON	Yes	1560								
A1GXFMAC759VRM	Collector	1	465	2016-03-05T14:27:51-08:00	4	1	Stimuli/versionBstim.txt	Procedure/versionBproc.txt	Tetris		ZONE		ZONE	OFF	LI_Unrel_Recall	563	seqrec	No	User	RGN Test	ON	No	1970								
A1GXFMAC759VRM	Collector	1	466	2016-03-05T14:27:54-08:00	3	1	Stimuli/versionBstim.txt	Procedure/versionBproc.txt	Tetris		BASEBALL BAT		BASEBALL BAT	OFF	NPLI_AdHoc_Recall	477	seqrec	No	User	RGN Test	ON	No	2080								
A1GXFMAC759VRM	Collector	1	467	2016-03-05T14:27:56-08:00	2	1	Stimuli/versionBstim.txt	Procedure/versionBproc.txt	Tetris		MANUAL		MANUAL	OFF	NPLI_Unrel_Recall	449	seqrec	No	User	RGN Test	ON	No	890								
A1GXFMAC759VRM	Collector	1	468	2016-03-05T14:28:00-08:00	4	1	Stimuli/versionBstim.txt	Procedure/versionBproc.txt	Tetris		FINGERPRINTS		FINGERPRINTS	OFF	LI_AdHoc_Recall	533	seqrec	No	User	RGN Test	ON	Yes	2630								
A1GXFMAC759VRM	Collector	1	469	2016-03-05T14:28:03-08:00	3	1	Stimuli/versionBstim.txt	Procedure/versionBproc.txt	Tetris		CINNAMON		CINNAMON	OFF	NPCI_Cat_Recall	483	seqrec	No	User	RGN Test	ON	No	1370								
A1GXFMAC759VRM	Collector	1	470	2016-03-05T14:28:05-08:00	2	1	Stimuli/versionBstim.txt	Procedure/versionBproc.txt	Tetris		LANDMARK		LANDMARK	OFF	LI_Unrel_Recall	562	seqrec	No	User	RGN Test	ON	Yes	850								
A1GXFMAC759VRM	Collector	1	471	2016-03-05T14:28:07-08:00	2	1	Stimuli/versionBstim.txt	Procedure/versionBproc.txt	Tetris		HOE		HOE	OFF	CI_Cat_Recall	593	seqrec	No	User	RGN Test	ON	No	950								
A1GXFMAC759VRM	Collector	1	472	2016-03-05T14:28:09-08:00	2	1	Stimuli/versionBstim.txt	Procedure/versionBproc.txt	Tetris		COLOGNE		COLOGNE	OFF	CI_AdHoc_Recall	580	seqrec	No	User	RGN Test	ON	No	890								
A1GXFMAC759VRM	Collector	1	473	2016-03-05T14:28:12-08:00	3	1	Stimuli/versionBstim.txt	Procedure/versionBproc.txt	Tetris		TENT		TENT	OFF	CI_Cat_Recall	588	seqrec	No	User	RGN Test	ON	No	1460								
A1GXFMAC759VRM	Collector	1	474	2016-03-05T14:28:14-08:00	2	1	Stimuli/versionBstim.txt	Procedure/versionBproc.txt	Tetris		KNOCK		KNOCK	OFF	LI_Unrel_Recall	566	seqrec	No	User	RGN Test	ON	No	960								
A1GXFMAC759VRM	Collector	1	475	2016-03-05T14:28:17-08:00	3	1	Stimuli/versionBstim.txt	Procedure/versionBproc.txt	Tetris		BRISKET		BRISKET	OFF	CI_Unrel_Recall	598	seqrec	No	User	RGN Test	ON	No	1130								
A1GXFMAC759VRM	Collector	1	476	2016-03-05T14:28:22-08:00	5	1	Stimuli/versionBstim.txt	Procedure/versionBproc.txt	Tetris		APARTMENT		APARTMENT	OFF	CI_Cat_Recall	587	seqrec	No	User	RGN Test	ON	No	3720								
A1GXFMAC759VRM	Collector	1	477	2016-03-05T14:28:25-08:00	3	1	Stimuli/versionBstim.txt	Procedure/versionBproc.txt	Tetris		TRIMMER		TRIMMER	OFF	LI_Cat_Recall	559	seqrec	No	User	RGN Test	ON	Yes	1310								
