ExperimentName,Subject,Block,list,Procedure.Block.,cue_target,Direction,ListNum,JOL,RT,Procedure.Trial.,Type,Procedure.Block..1,cue_target.1,ListNum.1,Response,Procedure.Trial..1,Type.1,Scored
IS_JOL A,5,1,3,BlockProc1,Delinquent - Bad,F,1,75,3607,StudyProc7,JOL,BlockProc1,Delinquent - ?,1,,recallproc1,recall,0
IS_JOL A,5,1,3,BlockProc1,Digestion - Stomach,F,2,75,3424,StudyProc7,JOL,BlockProc1,Digestion - ?,2,eat,recallproc1,recall,0
IS_JOL A,5,1,3,BlockProc1,Wage - Money,F,3,60,7704,StudyProc7,JOL,BlockProc1,Wage - ?,3,,recallproc1,recall,0
IS_JOL A,5,1,3,BlockProc1,Chisel - Hammer,F,4,55,4372,StudyProc7,JOL,BlockProc1,Chisel - ?,4,hammer,recallproc1,recall,1
IS_JOL A,5,1,3,BlockProc1,Editor - News,F,5,85,3237,StudyProc7,JOL,BlockProc1,Editor - ?,5,news,recallproc1,recall,1
IS_JOL A,5,1,3,BlockProc1,Hornet - Sting,F,6,35,3583,StudyProc7,JOL,BlockProc1,Hornet - ?,6,,recallproc1,recall,0
IS_JOL A,5,1,3,BlockProc1,Bitter - Cold,F,7,80,3612,StudyProc7,JOL,BlockProc1,Bitter - ?,7,cold,recallproc1,recall,1
IS_JOL A,5,1,3,BlockProc1,Root - Plant,F,8,60,4064,StudyProc7,JOL,BlockProc1,Root - ?,8,plant,recallproc1,recall,1
IS_JOL A,5,1,3,BlockProc1,Swan - Bird,F,9,90,2759,StudyProc7,JOL,BlockProc1,Swan - ?,9,,recallproc1,recall,0
IS_JOL A,5,1,3,BlockProc1,Paw - Dog,F,10,95,3957,StudyProc7,JOL,BlockProc1,Paw - ?,10,dog,recallproc1,recall,1
IS_JOL A,5,1,3,BlockProc1,Way - Out,F,11,75,7879,StudyProc7,JOL,BlockProc1,Way - ?,11,,recallproc1,recall,0
IS_JOL A,5,1,3,BlockProc1,Hygiene - Clean,F,12,85,3424,StudyProc7,JOL,BlockProc1,Hygiene - ?,12,clean,recallproc1,recall,1
IS_JOL A,5,1,3,BlockProc1,Bridge - Water,F,13,50,3511,StudyProc7,JOL,BlockProc1,Bridge - ?,13,water,recallproc1,recall,1
IS_JOL A,5,1,3,BlockProc1,Geology - Rock,F,14,90,2933,StudyProc7,JOL,BlockProc1,Geology - ?,14,rock,recallproc1,recall,1
IS_JOL A,5,1,3,BlockProc1,Revolution - War,F,15,80,10025,StudyProc7,JOL,BlockProc1,Revolution - ?,15,war,recallproc1,recall,1
IS_JOL A,5,1,3,BlockProc1,Discussion - Talk,F,16,80,2517,StudyProc7,JOL,BlockProc1,Discussion - ?,16,talk,recallproc1,recall,1
IS_JOL A,5,1,3,BlockProc1,Herd - Cow,F,17,80,2952,StudyProc7,JOL,BlockProc1,Herd - ?,17,cow,recallproc1,recall,1
IS_JOL A,5,1,3,BlockProc1,Credit - Card,F,18,95,3700,StudyProc7,JOL,BlockProc1,Credit - ?,18,card,recallproc1,recall,1
IS_JOL A,5,1,3,BlockProc1,Orchid - Flower,F,19,70,6556,StudyProc7,JOL,BlockProc1,Orchid - ?,19,flower,recallproc1,recall,1
IS_JOL A,5,1,3,BlockProc1,Tuna - Fish,F,20,90,1888,StudyProc7,JOL,BlockProc1,Tuna - ?,20,fish,recallproc1,recall,1
IS_JOL A,5,1,3,BlockProc1,Full - Enough,B,21,100,3219,StudyProc7,JOL,BlockProc1,Full - ?,21,enough,recallproc1,recall,1
IS_JOL A,5,1,3,BlockProc1,Drink - Sip,B,22,75,8043,StudyProc7,JOL,BlockProc1,Drink - ?,22,,recallproc1,recall,0
IS_JOL A,5,1,3,BlockProc1,Dark - Cave,B,23,75,4734,StudyProc7,JOL,BlockProc1,Dark - ?,23,,recallproc1,recall,0
IS_JOL A,5,1,3,BlockProc1,Take - Seize,B,24,65,8959,StudyProc7,JOL,BlockProc1,Take - ?,24,,recallproc1,recall,0
IS_JOL A,5,1,3,BlockProc1,Height - Growth,B,25,75,3362,StudyProc7,JOL,BlockProc1,Height - ?,25,,recallproc1,recall,0
IS_JOL A,5,1,3,BlockProc1,Sentence - Word,B,26,90,11455,StudyProc7,JOL,BlockProc1,Sentence - ?,26,word,recallproc1,recall,1
IS_JOL A,5,1,3,BlockProc1,Bug - Wasp,B,27,85,4342,StudyProc7,JOL,BlockProc1,Bug - ?,27,hornet,recallproc1,recall,0
IS_JOL A,5,1,3,BlockProc1,Math - Division,B,28,95,3542,StudyProc7,JOL,BlockProc1,Math - ?,28,divison,recallproc1,recall,1
IS_JOL A,5,1,3,BlockProc1,Law - Attorney,B,29,100,4586,StudyProc7,JOL,BlockProc1,Law - ?,29,attorney,recallproc1,recall,1
IS_JOL A,5,1,3,BlockProc1,Great - Fantastic,B,30,75,4210,StudyProc7,JOL,BlockProc1,Great - ?,30,,recallproc1,recall,0
IS_JOL A,5,1,3,BlockProc1,Key - Latch,B,31,30,3804,StudyProc7,JOL,BlockProc1,Key - ?,31,,recallproc1,recall,0
IS_JOL A,5,1,3,BlockProc1,Hot - Chili,B,32,80,10952,StudyProc7,JOL,BlockProc1,Hot - ?,32,,recallproc1,recall,0
IS_JOL A,5,1,3,BlockProc1,Ball - Racket,B,33,85,3938,StudyProc7,JOL,BlockProc1,Ball - ?,33,,recallproc1,recall,0
IS_JOL A,5,1,3,BlockProc1,Work - Chore,B,34,70,3930,StudyProc7,JOL,BlockProc1,Work - ?,34,,recallproc1,recall,0
IS_JOL A,5,1,3,BlockProc1,Hunger - Famine,B,35,80,6675,StudyProc7,JOL,BlockProc1,Hunger - ?,35,famine,recallproc1,recall,1
IS_JOL A,5,1,3,BlockProc1,Sleep - Drowsy,B,36,80,8795,StudyProc7,JOL,BlockProc1,Sleep - ?,36,dreary,recallproc1,recall,0
IS_JOL A,5,1,3,BlockProc1,Smell - Stench,B,37,85,10364,StudyProc7,JOL,BlockProc1,Smell - ?,37,stench,recallproc1,recall,1
IS_JOL A,5,1,3,BlockProc1,Clothes - Attire,B,38,90,13339,StudyProc7,JOL,BlockProc1,Clothes - ?,38,attire,recallproc1,recall,1
IS_JOL A,5,1,3,BlockProc1,Plane - Pilot,B,39,100,4101,StudyProc7,JOL,BlockProc1,Plane - ?,39,pilot,recallproc1,recall,1
IS_JOL A,5,1,3,BlockProc1,Fire - Blaze,B,40,100,7221,StudyProc7,JOL,BlockProc1,Fire - ?,40,blaze,recallproc1,recall,1
IS_JOL A,5,1,3,BlockProc1,Due - Assignment,S,41,80,3026,StudyProc3,JOL,BlockProc1,Due - ?,41,assignment,recallproc1,recall,1
IS_JOL A,5,1,3,BlockProc1,Number - Amount,S,42,90,3062,StudyProc3,JOL,BlockProc1,Number - ?,42,,recallproc1,recall,0
IS_JOL A,5,1,3,BlockProc1,Location - Site,S,43,90,2574,StudyProc3,JOL,BlockProc1,Location - ?,43,,recallproc1,recall,0
IS_JOL A,5,1,3,BlockProc1,Dump - Waste,S,44,40,5729,StudyProc3,JOL,BlockProc1,Dump - ?,44,,recallproc1,recall,0
IS_JOL A,5,1,3,BlockProc1,Trial - Jury,S,45,100,6296,StudyProc3,JOL,BlockProc1,Trial - ?,45,,recallproc1,recall,0
IS_JOL A,5,1,3,BlockProc1,Architecture - Design,S,46,15,3418,StudyProc3,JOL,BlockProc1,Architecture - ?,46,design,recallproc1,recall,1
IS_JOL A,5,1,3,BlockProc1,Grill - Bar,S,47,95,5480,StudyProc3,JOL,BlockProc1,Grill - ?,47,bar,recallproc1,recall,1
IS_JOL A,5,1,3,BlockProc1,Kidney - Liver,S,48,90,2563,StudyProc3,JOL,BlockProc1,Kidney - ?,48,liver,recallproc1,recall,1
IS_JOL A,5,1,3,BlockProc1,Begin - End,S,49,100,3324,StudyProc3,JOL,BlockProc1,Begin - ?,49,end,recallproc1,recall,1
IS_JOL A,5,1,3,BlockProc1,Blow - Wind,S,50,70,11100,StudyProc3,JOL,BlockProc1,Blow - ?,50,wind,recallproc1,recall,1
IS_JOL A,5,1,3,BlockProc1,Pop - Soda,S,51,100,3036,StudyProc3,JOL,BlockProc1,Pop - ?,51,soda,recallproc1,recall,1
IS_JOL A,5,1,3,BlockProc1,Wine - Cheese,S,52,100,7012,StudyProc3,JOL,BlockProc1,Wine - ?,52,,recallproc1,recall,0
IS_JOL A,5,1,3,BlockProc1,Bathroom - Toilet,S,53,100,8581,StudyProc3,JOL,BlockProc1,Bathroom - ?,53,toilet,recallproc1,recall,1
IS_JOL A,5,1,3,BlockProc1,Lettuce - Salad,S,54,100,2764,StudyProc3,JOL,BlockProc1,Lettuce - ?,54,salad,recallproc1,recall,1
IS_JOL A,5,1,3,BlockProc1,Shoe - Foot,S,55,100,4034,StudyProc3,JOL,BlockProc1,Shoe - ?,55,foot,recallproc1,recall,1
IS_JOL A,5,1,3,BlockProc1,Past - Future,S,56,100,5150,StudyProc3,JOL,BlockProc1,Past - ?,56,future,recallproc1,recall,1
IS_JOL A,5,1,3,BlockProc1,Choice - Decision,S,57,70,4513,StudyProc3,JOL,BlockProc1,Choice - ?,57,decision,recallproc1,recall,1
IS_JOL A,5,1,3,BlockProc1,Honey - Bee,S,58,100,2975,StudyProc3,JOL,BlockProc1,Honey - ?,58,bee,recallproc1,recall,1
IS_JOL A,5,1,3,BlockProc1,Baby - Child,S,59,100,2443,StudyProc3,JOL,BlockProc1,Baby - ?,59,child,recallproc1,recall,1
IS_JOL A,5,1,3,BlockProc1,Circle - Round,S,60,100,4028,StudyProc3,JOL,BlockProc1,Circle - ?,60,round,recallproc1,recall,1
IS_JOL A,5,1,3,BlockProc1,Pusher - Clutter,U,61,10,4018,StudyProc3,JOL,BlockProc1,Pusher - ?,61,,recallproc1,recall,0
IS_JOL A,5,1,3,BlockProc1,Dietary - Slacking,U,62,10,8262,StudyProc3,JOL,BlockProc1,Dietary - ?,62,food,recallproc1,recall,0
IS_JOL A,5,1,3,BlockProc1,Park - Hungry,U,63,25,6907,StudyProc3,JOL,BlockProc1,Park - ?,63,food,recallproc1,recall,0
IS_JOL A,5,1,3,BlockProc1,Lift - Woman,U,64,20,4339,StudyProc3,JOL,BlockProc1,Lift - ?,64,,recallproc1,recall,0
IS_JOL A,5,1,3,BlockProc1,Soon - Belt,U,65,40,6172,StudyProc3,JOL,BlockProc1,Soon - ?,65,,recallproc1,recall,0
IS_JOL A,5,1,3,BlockProc1,Discover - Floor,U,66,10,8013,StudyProc3,JOL,BlockProc1,Discover - ?,66,,recallproc1,recall,0
IS_JOL A,5,1,3,BlockProc1,Death - Business,U,67,70,4058,StudyProc3,JOL,BlockProc1,Death - ?,67,business,recallproc1,recall,1
IS_JOL A,5,1,3,BlockProc1,Debate - Sight,U,68,15,4790,StudyProc3,JOL,BlockProc1,Debate - ?,68,,recallproc1,recall,0
IS_JOL A,5,1,3,BlockProc1,Artery - Bronze,U,69,30,7405,StudyProc3,JOL,BlockProc1,Artery - ?,69,bronze,recallproc1,recall,1
IS_JOL A,5,1,3,BlockProc1,Fix - Hand,U,70,80,4255,StudyProc3,JOL,BlockProc1,Fix - ?,70,,recallproc1,recall,0
IS_JOL A,5,1,3,BlockProc1,Machine - Position,U,71,55,5829,StudyProc3,JOL,BlockProc1,Machine - ?,71,,recallproc1,recall,0
IS_JOL A,5,1,3,BlockProc1,Happy - Car,U,72,60,6971,StudyProc3,JOL,BlockProc1,Happy - ?,72,car,recallproc1,recall,1
IS_JOL A,5,1,3,BlockProc1,Allow - Tuck,U,73,35,4108,StudyProc3,JOL,BlockProc1,Allow - ?,73,let,recallproc1,recall,0
IS_JOL A,5,1,3,BlockProc1,Art - Lion,U,74,20,3583,StudyProc3,JOL,BlockProc1,Art - ?,74,,recallproc1,recall,0
IS_JOL A,5,1,3,BlockProc1,Strong - Accident,U,75,35,5735,StudyProc3,JOL,BlockProc1,Strong - ?,75,,recallproc1,recall,0
IS_JOL A,5,1,3,BlockProc1,Sugar - Riddle,U,76,40,3669,StudyProc3,JOL,BlockProc1,Sugar - ?,76,,recallproc1,recall,0
IS_JOL A,5,1,3,BlockProc1,Valley - Add,U,77,0,2980,StudyProc3,JOL,BlockProc1,Valley - ?,77,,recallproc1,recall,0
IS_JOL A,5,1,3,BlockProc1,Cash - Would,U,78,10,3324,StudyProc3,JOL,BlockProc1,Cash - ?,78,,recallproc1,recall,0
IS_JOL A,5,1,3,BlockProc1,Hide - Sick,U,79,20,4041,StudyProc3,JOL,BlockProc1,Hide - ?,79,,recallproc1,recall,0
IS_JOL A,5,1,3,BlockProc1,King - Vase,U,80,30,3697,StudyProc3,JOL,BlockProc1,King - ?,80,vase,recallproc1,recall,1
IS_JOL A,5,2,3,BlockProc2,Extension - Long,F,1,50,2579,StudyProc5,JOL,BlockProc2,Extension - ?,1,,recallproc2,recall,0
IS_JOL A,5,2,3,BlockProc2,Clue - Game,F,2,85,2005,StudyProc5,JOL,BlockProc2,Clue - ?,2,,recallproc2,recall,0
IS_JOL A,5,2,3,BlockProc2,Cactus - Plant,F,3,60,3626,StudyProc5,JOL,BlockProc2,Cactus - ?,3,plant,recallproc2,recall,1
IS_JOL A,5,2,3,BlockProc2,Shoelace - Tie,F,4,65,8018,StudyProc5,JOL,BlockProc2,Shoelace - ?,4,tie,recallproc2,recall,1
IS_JOL A,5,2,3,BlockProc2,Detective - Mystery,F,5,50,3150,StudyProc5,JOL,BlockProc2,Detective - ?,5,,recallproc2,recall,0
IS_JOL A,5,2,3,BlockProc2,Adjourn - End,F,6,NA,2695,StudyProc5,JOL,BlockProc2,Adjourn - ?,6,,recallproc2,recall,0
IS_JOL A,5,2,3,BlockProc2,Furry - Dog,F,7,90,2780,StudyProc5,JOL,BlockProc2,Furry - ?,7,dog,recallproc2,recall,1
IS_JOL A,5,2,3,BlockProc2,Litter - Trash,F,8,60,6112,StudyProc5,JOL,BlockProc2,Litter - ?,8,trash,recallproc2,recall,1
IS_JOL A,5,2,3,BlockProc2,Cherry - Red,F,9,70,2667,StudyProc5,JOL,BlockProc2,Cherry - ?,9,red,recallproc2,recall,1
IS_JOL A,5,2,3,BlockProc2,Scalp - Head,F,10,80,8370,StudyProc5,JOL,BlockProc2,Scalp - ?,10,head,recallproc2,recall,1
IS_JOL A,5,2,3,BlockProc2,Driver - Car,F,11,100,3453,StudyProc5,JOL,BlockProc2,Driver - ?,11,car,recallproc2,recall,1
IS_JOL A,5,2,3,BlockProc2,Chop - Cut,F,12,90,2449,StudyProc5,JOL,BlockProc2,Chop - ?,12,cut,recallproc2,recall,1
IS_JOL A,5,2,3,BlockProc2,Mule - Donkey,F,13,80,2612,StudyProc5,JOL,BlockProc2,Mule - ?,13,donkey,recallproc2,recall,1
IS_JOL A,5,2,3,BlockProc2,Document - Paper,F,14,50,3690,StudyProc5,JOL,BlockProc2,Document - ?,14,paper,recallproc2,recall,1
IS_JOL A,5,2,3,BlockProc2,Incense - Smell,F,15,60,3108,StudyProc5,JOL,BlockProc2,Incense - ?,15,smell,recallproc2,recall,1
IS_JOL A,5,2,3,BlockProc2,Dine - Eat,F,16,80,2565,StudyProc5,JOL,BlockProc2,Dine - ?,16,eat,recallproc2,recall,1
IS_JOL A,5,2,3,BlockProc2,Shears - Scissors,F,17,40,2341,StudyProc5,JOL,BlockProc2,Shears - ?,17,scissors,recallproc2,recall,1
IS_JOL A,5,2,3,BlockProc2,Feud - Fight,F,18,50,5528,StudyProc5,JOL,BlockProc2,Feud - ?,18,,recallproc2,recall,0
IS_JOL A,5,2,3,BlockProc2,Chill - Cold,F,19,60,3542,StudyProc5,JOL,BlockProc2,Chill - ?,19,cold,recallproc2,recall,1
IS_JOL A,5,2,3,BlockProc2,Affection - Love,F,20,80,2985,StudyProc5,JOL,BlockProc2,Affection - ?,20,,recallproc2,recall,0
IS_JOL A,5,2,3,BlockProc2,Turn - Flip,B,21,30,8548,StudyProc5,JOL,BlockProc2,Turn - ?,21,,recallproc2,recall,0
IS_JOL A,5,2,3,BlockProc2,Car - Windshield,B,22,60,2728,StudyProc5,JOL,BlockProc2,Car - ?,22,driver,recallproc2,recall,0
IS_JOL A,5,2,3,BlockProc2,Bad - Villain,B,23,90,2147,StudyProc5,JOL,BlockProc2,Bad - ?,23,,recallproc2,recall,0
IS_JOL A,5,2,3,BlockProc2,Bird - Penguin,B,24,50,2060,StudyProc5,JOL,BlockProc2,Bird - ?,24,,recallproc2,recall,0
IS_JOL A,5,2,3,BlockProc2,Star - Actress,B,25,80,3738,StudyProc5,JOL,BlockProc2,Star - ?,25,,recallproc2,recall,0
IS_JOL A,5,2,3,BlockProc2,Thread - Thimble,B,26,75,5837,StudyProc5,JOL,BlockProc2,Thread - ?,26,thimble,recallproc2,recall,1
IS_JOL A,5,2,3,BlockProc2,Even - Revenge,B,27,70,4516,StudyProc5,JOL,BlockProc2,Even - ?,27,,recallproc2,recall,0
IS_JOL A,5,2,3,BlockProc2,Pop - Balloon,B,28,70,2492,StudyProc5,JOL,BlockProc2,Pop - ?,28,,recallproc2,recall,0
IS_JOL A,5,2,3,BlockProc2,Fruit - Strawberry,B,29,80,3761,StudyProc5,JOL,BlockProc2,Fruit - ?,29,strawberry,recallproc2,recall,1
IS_JOL A,5,2,3,BlockProc2,Best - Favorite,B,30,30,6769,StudyProc5,JOL,BlockProc2,Best - ?,30,,recallproc2,recall,0
IS_JOL A,5,2,3,BlockProc2,Cat - Panther,B,31,80,4399,StudyProc5,JOL,BlockProc2,Cat - ?,31,,recallproc2,recall,0
IS_JOL A,5,2,3,BlockProc2,Glass - Breakable,B,32,70,5228,StudyProc5,JOL,BlockProc2,Glass - ?,32,breakale,recallproc2,recall,1
IS_JOL A,5,2,3,BlockProc2,Dead - Coffin,B,33,80,1922,StudyProc5,JOL,BlockProc2,Dead - ?,33,coffin,recallproc2,recall,1
IS_JOL A,5,2,3,BlockProc2,Plane - Aircraft,B,34,80,8585,StudyProc5,JOL,BlockProc2,Plane - ?,34,pilot,recallproc2,recall,0
IS_JOL A,5,2,3,BlockProc2,Fish - Sardine,B,35,0,7763,StudyProc5,JOL,BlockProc2,Fish - ?,35,sardine,recallproc2,recall,1
IS_JOL A,5,2,3,BlockProc2,Baseball - League,B,36,80,4240,StudyProc5,JOL,BlockProc2,Baseball - ?,36,league,recallproc2,recall,1
IS_JOL A,5,2,3,BlockProc2,Money - Banker,B,37,70,3372,StudyProc5,JOL,BlockProc2,Money - ?,37,,recallproc2,recall,0
IS_JOL A,5,2,3,BlockProc2,Honest - Truthful,B,38,9,2281,StudyProc5,JOL,BlockProc2,Honest - ?,38,,recallproc2,recall,0
IS_JOL A,5,2,3,BlockProc2,Sleep - Nap,B,39,80,2258,StudyProc5,JOL,BlockProc2,Sleep - ?,39,,recallproc2,recall,0
IS_JOL A,5,2,3,BlockProc2,Fight - Brawl,B,40,96,3048,StudyProc5,JOL,BlockProc2,Fight - ?,40,,recallproc2,recall,0
IS_JOL A,5,2,3,BlockProc2,Razor - Shave,S,41,95,3972,StudyProc8,JOL,BlockProc2,Razor - ?,41,,recallproc2,recall,0
IS_JOL A,5,2,3,BlockProc2,Rights - Equal,S,42,85,5527,StudyProc8,JOL,BlockProc2,Rights - ?,42,,recallproc2,recall,0
IS_JOL A,5,2,3,BlockProc2,Mason - Jar,S,43,100,3876,StudyProc8,JOL,BlockProc2,Mason - ?,43,jar,recallproc2,recall,1
IS_JOL A,5,2,3,BlockProc2,Candle - Wax,S,44,100,2417,StudyProc8,JOL,BlockProc2,Candle - ?,44,scent,recallproc2,recall,0
IS_JOL A,5,2,3,BlockProc2,Wrist - Bracelet,S,45,100,4286,StudyProc8,JOL,BlockProc2,Wrist - ?,45,bracelet,recallproc2,recall,1
IS_JOL A,5,2,3,BlockProc2,Element - Carbon,S,46,75,4030,StudyProc8,JOL,BlockProc2,Element - ?,46,carbon,recallproc2,recall,1
IS_JOL A,5,2,3,BlockProc2,Gone - Away,S,47,75,4316,StudyProc8,JOL,BlockProc2,Gone - ?,47,,recallproc2,recall,0
IS_JOL A,5,2,3,BlockProc2,Water - Drink,S,48,100,3646,StudyProc8,JOL,BlockProc2,Water - ?,48,,recallproc2,recall,0
IS_JOL A,5,2,3,BlockProc2,Earth - Ground,S,49,55,3409,StudyProc8,JOL,BlockProc2,Earth - ?,49,ground,recallproc2,recall,1
IS_JOL A,5,2,3,BlockProc2,Alone - Lonely,S,50,85,5511,StudyProc8,JOL,BlockProc2,Alone - ?,50,,recallproc2,recall,0
IS_JOL A,5,2,3,BlockProc2,Dry - Wet,S,51,100,2630,StudyProc8,JOL,BlockProc2,Dry - ?,51,,recallproc2,recall,0
IS_JOL A,5,2,3,BlockProc2,Safety - Seatbelt,S,52,80,3292,StudyProc8,JOL,BlockProc2,Safety - ?,52,seatbelt,recallproc2,recall,1
IS_JOL A,5,2,3,BlockProc2,Truth - Lie,S,53,90,2777,StudyProc8,JOL,BlockProc2,Truth - ?,53,lie,recallproc2,recall,1
IS_JOL A,5,2,3,BlockProc2,Phone - Communicatio,S,54,100,4332,StudyProc8,JOL,BlockProc2,Phone - ?,54,communicatio,recallproc2,recall,1
IS_JOL A,5,2,3,BlockProc2,Rod - Reel,S,55,100,2894,StudyProc8,JOL,BlockProc2,Rod - ?,55,reel,recallproc2,recall,1
IS_JOL A,5,2,3,BlockProc2,Flea - Tick,S,56,100,2977,StudyProc8,JOL,BlockProc2,Flea - ?,56,tick,recallproc2,recall,1
IS_JOL A,5,2,3,BlockProc2,Loud - Noise,S,57,100,3677,StudyProc8,JOL,BlockProc2,Loud - ?,57,noise,recallproc2,recall,1
IS_JOL A,5,2,3,BlockProc2,Own - Have,S,58,90,2770,StudyProc8,JOL,BlockProc2,Own - ?,58,,recallproc2,recall,0
IS_JOL A,5,2,3,BlockProc2,Tantrum - Temper,S,59,80,4682,StudyProc8,JOL,BlockProc2,Tantrum - ?,59,bad,recallproc2,recall,0
IS_JOL A,5,2,3,BlockProc2,Sun - Tan,S,60,100,3019,StudyProc8,JOL,BlockProc2,Sun - ?,60,,recallproc2,recall,0
IS_JOL A,5,2,3,BlockProc2,Justice - Maroon,U,61,15,5953,StudyProc8,JOL,BlockProc2,Justice - ?,61,,recallproc2,recall,0
IS_JOL A,5,2,3,BlockProc2,Stretch - Cloth,U,62,7,1855,StudyProc8,JOL,BlockProc2,Stretch - ?,62,clthe,recallproc2,recall,0
IS_JOL A,5,2,3,BlockProc2,Give - Steak,U,63,20,3335,StudyProc8,JOL,BlockProc2,Give - ?,63,,recallproc2,recall,0
IS_JOL A,5,2,3,BlockProc2,Maze - Election,U,64,10,2647,StudyProc8,JOL,BlockProc2,Maze - ?,64,,recallproc2,recall,0
IS_JOL A,5,2,3,BlockProc2,Vehicle - Charm,U,65,35,5287,StudyProc8,JOL,BlockProc2,Vehicle - ?,65,car,recallproc2,recall,0
IS_JOL A,5,2,3,BlockProc2,Meat - Obtain,U,66,50,3569,StudyProc8,JOL,BlockProc2,Meat - ?,66,,recallproc2,recall,0
IS_JOL A,5,2,3,BlockProc2,Crackle - Able,U,67,20,4662,StudyProc8,JOL,BlockProc2,Crackle - ?,67,,recallproc2,recall,0
IS_JOL A,5,2,3,BlockProc2,Shell - Shake,U,68,1,6842,StudyProc8,JOL,BlockProc2,Shell - ?,68,,recallproc2,recall,0
IS_JOL A,5,2,3,BlockProc2,Listen - Fiction,U,69,55,4520,StudyProc8,JOL,BlockProc2,Listen - ?,69,,recallproc2,recall,0
IS_JOL A,5,2,3,BlockProc2,Keys - Joke,U,70,40,4004,StudyProc8,JOL,BlockProc2,Keys - ?,70,,recallproc2,recall,0
IS_JOL A,5,2,3,BlockProc2,Cake - Clothes,U,71,10,4808,StudyProc8,JOL,BlockProc2,Cake - ?,71,clothes,recallproc2,recall,1
IS_JOL A,5,2,3,BlockProc2,Name - Hate,U,72,75,3512,StudyProc8,JOL,BlockProc2,Name - ?,72,,recallproc2,recall,0
IS_JOL A,5,2,3,BlockProc2,Fuzzy - Bang,U,73,10,8317,StudyProc8,JOL,BlockProc2,Fuzzy - ?,73,dog,recallproc2,recall,0
IS_JOL A,5,2,3,BlockProc2,Moat - Clear,U,74,0,7153,StudyProc8,JOL,BlockProc2,Moat - ?,74,,recallproc2,recall,0
IS_JOL A,5,2,3,BlockProc2,Lease - Toil,U,75,50,4052,StudyProc8,JOL,BlockProc2,Lease - ?,75,,recallproc2,recall,0
IS_JOL A,5,2,3,BlockProc2,Loan - Sign,U,76,80,4496,StudyProc8,JOL,BlockProc2,Loan - ?,76,sign,recallproc2,recall,1
IS_JOL A,5,2,3,BlockProc2,Both - Ounce,U,77,0,2355,StudyProc8,JOL,BlockProc2,Both - ?,77,,recallproc2,recall,0
IS_JOL A,5,2,3,BlockProc2,Temperature - Morning,U,78,65,3191,StudyProc8,JOL,BlockProc2,Temperature - ?,78,morning,recallproc2,recall,1
IS_JOL A,5,2,3,BlockProc2,Mirror - Children,U,79,65,4710,StudyProc8,JOL,BlockProc2,Mirror - ?,79,child,recallproc2,recall,1
IS_JOL A,5,2,3,BlockProc2,Main - Scar,U,80,0,4174,StudyProc8,JOL,BlockProc2,Main - ?,80,,recallproc2,recall,0
IS_JOL B,6,1,3,BlockProc1,Extension - Long,F,1,99,4531,StudyProc3,JOL,BlockProc1,Extension - ?,1,extra,recallproc1,recall,0
IS_JOL B,6,1,3,BlockProc1,Clue - Game,F,2,75,5616,StudyProc3,JOL,BlockProc1,Clue - ?,2,,recallproc1,recall,0
IS_JOL B,6,1,3,BlockProc1,Cactus - Plant,F,3,60,4921,StudyProc3,JOL,BlockProc1,Cactus - ?,3,dessert,recallproc1,recall,0
IS_JOL B,6,1,3,BlockProc1,Shoelace - Tie,F,4,99,19264,StudyProc3,JOL,BlockProc1,Shoelace - ?,4,shoestring,recallproc1,recall,0
IS_JOL B,6,1,3,BlockProc1,Detective - Mystery,F,5,50,4976,StudyProc3,JOL,BlockProc1,Detective - ?,5,job,recallproc1,recall,0
IS_JOL B,6,1,3,BlockProc1,Adjourn - End,F,6,30,5168,StudyProc3,JOL,BlockProc1,Adjourn - ?,6,end,recallproc1,recall,1
IS_JOL B,6,1,3,BlockProc1,Furry - Dog,F,7,99,7525,StudyProc3,JOL,BlockProc1,Furry - ?,7,bangs,recallproc1,recall,0
IS_JOL B,6,1,3,BlockProc1,Litter - Trash,F,8,50,8094,StudyProc3,JOL,BlockProc1,Litter - ?,8,mess,recallproc1,recall,0
IS_JOL B,6,1,3,BlockProc1,Cherry - Red,F,9,99,2824,StudyProc3,JOL,BlockProc1,Cherry - ?,9,red,recallproc1,recall,1
IS_JOL B,6,1,3,BlockProc1,Scalp - Head,F,10,99,2195,StudyProc3,JOL,BlockProc1,Scalp - ?,10,bald,recallproc1,recall,0
IS_JOL B,6,1,3,BlockProc1,Driver - Car,F,11,99,5946,StudyProc3,JOL,BlockProc1,Driver - ?,11,car,recallproc1,recall,1
IS_JOL B,6,1,3,BlockProc1,Chop - Cut,F,12,90,5068,StudyProc3,JOL,BlockProc1,Chop - ?,12,cut,recallproc1,recall,1
IS_JOL B,6,1,3,BlockProc1,Mule - Donkey,F,13,45,4857,StudyProc3,JOL,BlockProc1,Mule - ?,13,,recallproc1,recall,0
IS_JOL B,6,1,3,BlockProc1,Document - Paper,F,14,85,5508,StudyProc3,JOL,BlockProc1,Document - ?,14,file,recallproc1,recall,0
IS_JOL B,6,1,3,BlockProc1,Incense - Smell,F,15,50,3840,StudyProc3,JOL,BlockProc1,Incense - ?,15,smell,recallproc1,recall,1
IS_JOL B,6,1,3,BlockProc1,Dine - Eat,F,16,99,3387,StudyProc3,JOL,BlockProc1,Dine - ?,16,in,recallproc1,recall,0
IS_JOL B,6,1,3,BlockProc1,Shears - Scissors,F,17,50,21284,StudyProc3,JOL,BlockProc1,Shears - ?,17,tear,recallproc1,recall,0
IS_JOL B,6,1,3,BlockProc1,Feud - Fight,F,18,80,5766,StudyProc3,JOL,BlockProc1,Feud - ?,18,fight,recallproc1,recall,1
IS_JOL B,6,1,3,BlockProc1,Chill - Cold,F,19,75,5186,StudyProc3,JOL,BlockProc1,Chill - ?,19,hangout,recallproc1,recall,1
IS_JOL B,6,1,3,BlockProc1,Affection - Love,F,20,99,2706,StudyProc3,JOL,BlockProc1,Affection - ?,20,love,recallproc1,recall,1
IS_JOL B,6,1,3,BlockProc1,Turn - Flip,B,21,99,9793,StudyProc3,JOL,BlockProc1,Turn - ?,21,switch,recallproc1,recall,0
IS_JOL B,6,1,3,BlockProc1,Car - Windshield,B,22,80,3440,StudyProc3,JOL,BlockProc1,Car - ?,22,door,recallproc1,recall,0
IS_JOL B,6,1,3,BlockProc1,Bad - Villain,B,23,99,4234,StudyProc3,JOL,BlockProc1,Bad - ?,23,,recallproc1,recall,0
IS_JOL B,6,1,3,BlockProc1,Bird - Penguin,B,24,75,31174,StudyProc3,JOL,BlockProc1,Bird - ?,24,cage,recallproc1,recall,0
IS_JOL B,6,1,3,BlockProc1,Star - Actress,B,25,99,3140,StudyProc3,JOL,BlockProc1,Star - ?,25,actress,recallproc1,recall,1
IS_JOL B,6,1,3,BlockProc1,Thread - Thimble,B,26,35,7708,StudyProc3,JOL,BlockProc1,Thread - ?,26,sort,recallproc1,recall,0
IS_JOL B,6,1,3,BlockProc1,Even - Revenge,B,27,99,12611,StudyProc3,JOL,BlockProc1,Even - ?,27,equal,recallproc1,recall,0
IS_JOL B,6,1,3,BlockProc1,Pop - Balloon,B,28,99,2432,StudyProc3,JOL,BlockProc1,Pop - ?,28,bust,recallproc1,recall,0
IS_JOL B,6,1,3,BlockProc1,Fruit - Strawberry,B,29,99,7303,StudyProc3,JOL,BlockProc1,Fruit - ?,29,strawberry,recallproc1,recall,1
IS_JOL B,6,1,3,BlockProc1,Best - Favorite,B,30,99,2754,StudyProc3,JOL,BlockProc1,Best - ?,30,favorite,recallproc1,recall,1
IS_JOL B,6,1,3,BlockProc1,Cat - Panther,B,31,50,3633,StudyProc3,JOL,BlockProc1,Cat - ?,31,dog,recallproc1,recall,0
IS_JOL B,6,1,3,BlockProc1,Glass - Breakable,B,32,75,6420,StudyProc3,JOL,BlockProc1,Glass - ?,32,door,recallproc1,recall,0
IS_JOL B,6,1,3,BlockProc1,Dead - Coffin,B,33,99,6012,StudyProc3,JOL,BlockProc1,Dead - ?,33,alive,recallproc1,recall,0
IS_JOL B,6,1,3,BlockProc1,Plane - Aircraft,B,34,80,5867,StudyProc3,JOL,BlockProc1,Plane - ?,34,crash,recallproc1,recall,0
IS_JOL B,6,1,3,BlockProc1,Fish - Sardine,B,35,99,4619,StudyProc3,JOL,BlockProc1,Fish - ?,35,shrimp,recallproc1,recall,0
IS_JOL B,6,1,3,BlockProc1,Baseball - League,B,36,80,5420,StudyProc3,JOL,BlockProc1,Baseball - ?,36,pitcher,recallproc1,recall,0
IS_JOL B,6,1,3,BlockProc1,Money - Banker,B,37,99,5803,StudyProc3,JOL,BlockProc1,Money - ?,37,,recallproc1,recall,0
IS_JOL B,6,1,3,BlockProc1,Honest - Truthful,B,38,85,14019,StudyProc3,JOL,BlockProc1,Honest - ?,38,truth,recallproc1,recall,1
IS_JOL B,6,1,3,BlockProc1,Sleep - Nap,B,39,99,3351,StudyProc3,JOL,BlockProc1,Sleep - ?,39,awake,recallproc1,recall,0
IS_JOL B,6,1,3,BlockProc1,Fight - Brawl,B,40,99,14022,StudyProc3,JOL,BlockProc1,Fight - ?,40,brawl,recallproc1,recall,1
IS_JOL B,6,1,3,BlockProc1,Razor - Shave,S,41,99,3774,StudyProc7,JOL,BlockProc1,Razor - ?,41,scissors,recallproc1,recall,0
IS_JOL B,6,1,3,BlockProc1,Rights - Equal,S,42,99,3300,StudyProc7,JOL,BlockProc1,Rights - ?,42,equal,recallproc1,recall,1
IS_JOL B,6,1,3,BlockProc1,Mason - Jar,S,43,9,2541,StudyProc7,JOL,BlockProc1,Mason - ?,43,jar,recallproc1,recall,1
IS_JOL B,6,1,3,BlockProc1,Candle - Wax,S,44,99,2611,StudyProc7,JOL,BlockProc1,Candle - ?,44,burn,recallproc1,recall,0
IS_JOL B,6,1,3,BlockProc1,Wrist - Bracelet,S,45,99,2840,StudyProc7,JOL,BlockProc1,Wrist - ?,45,anklet,recallproc1,recall,0
IS_JOL B,6,1,3,BlockProc1,Element - Carbon,S,46,99,3708,StudyProc7,JOL,BlockProc1,Element - ?,46,carbon,recallproc1,recall,1
IS_JOL B,6,1,3,BlockProc1,Gone - Away,S,47,99,2244,StudyProc7,JOL,BlockProc1,Gone - ?,47,away,recallproc1,recall,1
IS_JOL B,6,1,3,BlockProc1,Water - Drink,S,48,99,2106,StudyProc7,JOL,BlockProc1,Water - ?,48,cold,recallproc1,recall,0
IS_JOL B,6,1,3,BlockProc1,Earth - Ground,S,49,70,9706,StudyProc7,JOL,BlockProc1,Earth - ?,49,globe,recallproc1,recall,0
IS_JOL B,6,1,3,BlockProc1,Alone - Lonely,S,50,99,6162,StudyProc7,JOL,BlockProc1,Alone - ?,50,lonely,recallproc1,recall,1
IS_JOL B,6,1,3,BlockProc1,Dry - Wet,S,51,70,3844,StudyProc7,JOL,BlockProc1,Dry - ?,51,elt,recallproc1,recall,0
IS_JOL B,6,1,3,BlockProc1,Safety - Seatbelt,S,52,99,2175,StudyProc7,JOL,BlockProc1,Safety - ?,52,seatbelt,recallproc1,recall,1
IS_JOL B,6,1,3,BlockProc1,Truth - Lie,S,53,99,9676,StudyProc7,JOL,BlockProc1,Truth - ?,53,lie,recallproc1,recall,1
IS_JOL B,6,1,3,BlockProc1,Phone - Communicatio,S,54,80,6274,StudyProc7,JOL,BlockProc1,Phone - ?,54,call,recallproc1,recall,0
IS_JOL B,6,1,3,BlockProc1,Rod - Reel,S,55,20,3559,StudyProc7,JOL,BlockProc1,Rod - ?,55,,recallproc1,recall,0
IS_JOL B,6,1,3,BlockProc1,Flea - Tick,S,56,99,2971,StudyProc7,JOL,BlockProc1,Flea - ?,56,ticks,recallproc1,recall,1
IS_JOL B,6,1,3,BlockProc1,Loud - Noise,S,57,99,2081,StudyProc7,JOL,BlockProc1,Loud - ?,57,noise,recallproc1,recall,1
IS_JOL B,6,1,3,BlockProc1,Own - Have,S,58,60,4872,StudyProc7,JOL,BlockProc1,Own - ?,58,lease,recallproc1,recall,0
IS_JOL B,6,1,3,BlockProc1,Tantrum - Temper,S,59,99,2895,StudyProc7,JOL,BlockProc1,Tantrum - ?,59,fit,recallproc1,recall,0
IS_JOL B,6,1,3,BlockProc1,Sun - Tan,S,60,99,2730,StudyProc7,JOL,BlockProc1,Sun - ?,60,sky,recallproc1,recall,0
IS_JOL B,6,1,3,BlockProc1,Justice - Maroon,U,61,30,3959,StudyProc7,JOL,BlockProc1,Justice - ?,61,peace,recallproc1,recall,0
IS_JOL B,6,1,3,BlockProc1,Stretch - Cloth,U,62,50,4131,StudyProc7,JOL,BlockProc1,Stretch - ?,62,bend,recallproc1,recall,0
IS_JOL B,6,1,3,BlockProc1,Give - Steak,U,63,50,4665,StudyProc7,JOL,BlockProc1,Give - ?,63,want,recallproc1,recall,0
IS_JOL B,6,1,3,BlockProc1,Maze - Election,U,64,40,3388,StudyProc7,JOL,BlockProc1,Maze - ?,64,,recallproc1,recall,0
IS_JOL B,6,1,3,BlockProc1,Vehicle - Charm,U,65,60,5487,StudyProc7,JOL,BlockProc1,Vehicle - ?,65,car,recallproc1,recall,0
IS_JOL B,6,1,3,BlockProc1,Meat - Obtain,U,66,50,4592,StudyProc7,JOL,BlockProc1,Meat - ?,66,eat,recallproc1,recall,0
IS_JOL B,6,1,3,BlockProc1,Crackle - Able,U,67,20,5941,StudyProc7,JOL,BlockProc1,Crackle - ?,67,laugh,recallproc1,recall,0
IS_JOL B,6,1,3,BlockProc1,Shell - Shake,U,68,0,5217,StudyProc7,JOL,BlockProc1,Shell - ?,68,hard,recallproc1,recall,0
IS_JOL B,6,1,3,BlockProc1,Listen - Fiction,U,69,30,7391,StudyProc7,JOL,BlockProc1,Listen - ?,69,hear,recallproc1,recall,0
IS_JOL B,6,1,3,BlockProc1,Keys - Joke,U,70,50,5035,StudyProc7,JOL,BlockProc1,Keys - ?,70,door,recallproc1,recall,0
IS_JOL B,6,1,3,BlockProc1,Cake - Clothes,U,71,40,13025,StudyProc7,JOL,BlockProc1,Cake - ?,71,,recallproc1,recall,0
IS_JOL B,6,1,3,BlockProc1,Name - Hate,U,72,50,4868,StudyProc7,JOL,BlockProc1,Name - ?,72,,recallproc1,recall,0
IS_JOL B,6,1,3,BlockProc1,Fuzzy - Bang,U,73,45,5045,StudyProc7,JOL,BlockProc1,Fuzzy - ?,73,bangs,recallproc1,recall,1
IS_JOL B,6,1,3,BlockProc1,Moat - Clear,U,74,40,3301,StudyProc7,JOL,BlockProc1,Moat - ?,74,,recallproc1,recall,0
IS_JOL B,6,1,3,BlockProc1,Lease - Toil,U,75,40,5054,StudyProc7,JOL,BlockProc1,Lease - ?,75,own,recallproc1,recall,0
IS_JOL B,6,1,3,BlockProc1,Loan - Sign,U,76,60,5671,StudyProc7,JOL,BlockProc1,Loan - ?,76,request,recallproc1,recall,0
IS_JOL B,6,1,3,BlockProc1,Both - Ounce,U,77,20,4258,StudyProc7,JOL,BlockProc1,Both - ?,77,,recallproc1,recall,0
IS_JOL B,6,1,3,BlockProc1,Temperature - Morning,U,78,65,6886,StudyProc7,JOL,BlockProc1,Temperature - ?,78,weather,recallproc1,recall,0
IS_JOL B,6,1,3,BlockProc1,Mirror - Children,U,79,40,4538,StudyProc7,JOL,BlockProc1,Mirror - ?,79,crack,recallproc1,recall,0
IS_JOL B,6,1,3,BlockProc1,Main - Scar,U,80,40,9236,StudyProc7,JOL,BlockProc1,Main - ?,80,,recallproc1,recall,0
IS_JOL B,6,2,3,BlockProc2,Delinquent - Bad,F,1,50,4277,StudyProc5,JOL,BlockProc2,Delinquent - ?,1,bad,recallproc2,recall,1
IS_JOL B,6,2,3,BlockProc2,Digestion - Stomach,F,2,30,3184,StudyProc5,JOL,BlockProc2,Digestion - ?,2,stomach,recallproc2,recall,1
IS_JOL B,6,2,3,BlockProc2,Wage - Money,F,3,60,3405,StudyProc5,JOL,BlockProc2,Wage - ?,3,allowance,recallproc2,recall,0
IS_JOL B,6,2,3,BlockProc2,Chisel - Hammer,F,4,0,2250,StudyProc5,JOL,BlockProc2,Chisel - ?,4,,recallproc2,recall,0
IS_JOL B,6,2,3,BlockProc2,Editor - News,F,5,10,3040,StudyProc5,JOL,BlockProc2,Editor - ?,5,,recallproc2,recall,0
IS_JOL B,6,2,3,BlockProc2,Hornet - Sting,F,6,50,5352,StudyProc5,JOL,BlockProc2,Hornet - ?,6,bee,recallproc2,recall,0
IS_JOL B,6,2,3,BlockProc2,Bitter - Cold,F,7,0,4770,StudyProc5,JOL,BlockProc2,Bitter - ?,7,chew,recallproc2,recall,0
IS_JOL B,6,2,3,BlockProc2,Root - Plant,F,8,50,3645,StudyProc5,JOL,BlockProc2,Root - ?,8,plant,recallproc2,recall,1
IS_JOL B,6,2,3,BlockProc2,Swan - Bird,F,9,40,2839,StudyProc5,JOL,BlockProc2,Swan - ?,9,bird,recallproc2,recall,1
IS_JOL B,6,2,3,BlockProc2,Paw - Dog,F,10,30,3760,StudyProc5,JOL,BlockProc2,Paw - ?,10,fist,recallproc2,recall,0
IS_JOL B,6,2,3,BlockProc2,Way - Out,F,11,99,4085,StudyProc5,JOL,BlockProc2,Way - ?,11,,recallproc2,recall,0
IS_JOL B,6,2,3,BlockProc2,Hygiene - Clean,F,12,99,2653,StudyProc5,JOL,BlockProc2,Hygiene - ?,12,smell,recallproc2,recall,0
IS_JOL B,6,2,3,BlockProc2,Bridge - Water,F,13,99,1950,StudyProc5,JOL,BlockProc2,Bridge - ?,13,cross,recallproc2,recall,0
IS_JOL B,6,2,3,BlockProc2,Geology - Rock,F,14,99,3107,StudyProc5,JOL,BlockProc2,Geology - ?,14,worlod,recallproc2,recall,0
IS_JOL B,6,2,3,BlockProc2,Revolution - War,F,15,99,2261,StudyProc5,JOL,BlockProc2,Revolution - ?,15,war,recallproc2,recall,1
IS_JOL B,6,2,3,BlockProc2,Discussion - Talk,F,16,99,1998,StudyProc5,JOL,BlockProc2,Discussion - ?,16,statement,recallproc2,recall,0
IS_JOL B,6,2,3,BlockProc2,Herd - Cow,F,17,99,2201,StudyProc5,JOL,BlockProc2,Herd - ?,17,cow,recallproc2,recall,1
IS_JOL B,6,2,3,BlockProc2,Credit - Card,F,18,99,1922,StudyProc5,JOL,BlockProc2,Credit - ?,18,card,recallproc2,recall,1
IS_JOL B,6,2,3,BlockProc2,Orchid - Flower,F,19,30,3279,StudyProc5,JOL,BlockProc2,Orchid - ?,19,flower,recallproc2,recall,1
IS_JOL B,6,2,3,BlockProc2,Tuna - Fish,F,20,99,2253,StudyProc5,JOL,BlockProc2,Tuna - ?,20,fish,recallproc2,recall,1
IS_JOL B,6,2,3,BlockProc2,Full - Enough,B,21,20,2891,StudyProc5,JOL,BlockProc2,Full - ?,21,empty,recallproc2,recall,0
IS_JOL B,6,2,3,BlockProc2,Drink - Sip,B,22,99,2356,StudyProc5,JOL,BlockProc2,Drink - ?,22,water,recallproc2,recall,0
IS_JOL B,6,2,3,BlockProc2,Dark - Cave,B,23,40,2852,StudyProc5,JOL,BlockProc2,Dark - ?,23,scary,recallproc2,recall,0
IS_JOL B,6,2,3,BlockProc2,Take - Seize,B,24,20,3507,StudyProc5,JOL,BlockProc2,Take - ?,24,have,recallproc2,recall,0
IS_JOL B,6,2,3,BlockProc2,Height - Growth,B,25,60,3728,StudyProc5,JOL,BlockProc2,Height - ?,25,tall,recallproc2,recall,0
IS_JOL B,6,2,3,BlockProc2,Sentence - Word,B,26,99,2329,StudyProc5,JOL,BlockProc2,Sentence - ?,26,word,recallproc2,recall,1
IS_JOL B,6,2,3,BlockProc2,Bug - Wasp,B,27,10,3436,StudyProc5,JOL,BlockProc2,Bug - ?,27,,recallproc2,recall,0
IS_JOL B,6,2,3,BlockProc2,Math - Division,B,28,99,3134,StudyProc5,JOL,BlockProc2,Math - ?,28,problem,recallproc2,recall,0
IS_JOL B,6,2,3,BlockProc2,Law - Attorney,B,29,99,2619,StudyProc5,JOL,BlockProc2,Law - ?,29,attorney,recallproc2,recall,1
IS_JOL B,6,2,3,BlockProc2,Great - Fantastic,B,30,99,3892,StudyProc5,JOL,BlockProc2,Great - ?,30,enthuastic,recallproc2,recall,0
IS_JOL B,6,2,3,BlockProc2,Key - Latch,B,31,30,2779,StudyProc5,JOL,BlockProc2,Key - ?,31,latch,recallproc2,recall,1
IS_JOL B,6,2,3,BlockProc2,Hot - Chili,B,32,99,4459,StudyProc5,JOL,BlockProc2,Hot - ?,32,chili,recallproc2,recall,1
IS_JOL B,6,2,3,BlockProc2,Ball - Racket,B,33,50,2375,StudyProc5,JOL,BlockProc2,Ball - ?,33,throw,recallproc2,recall,0
IS_JOL B,6,2,3,BlockProc2,Work - Chore,B,34,99,3118,StudyProc5,JOL,BlockProc2,Work - ?,34,allowance,recallproc2,recall,0
IS_JOL B,6,2,3,BlockProc2,Hunger - Famine,B,35,0,3112,StudyProc5,JOL,BlockProc2,Hunger - ?,35,bee,recallproc2,recall,0
IS_JOL B,6,2,3,BlockProc2,Sleep - Drowsy,B,36,99,1957,StudyProc5,JOL,BlockProc2,Sleep - ?,36,,recallproc2,recall,0
IS_JOL B,6,2,3,BlockProc2,Smell - Stench,B,37,20,2735,StudyProc5,JOL,BlockProc2,Smell - ?,37,sense,recallproc2,recall,0
IS_JOL B,6,2,3,BlockProc2,Clothes - Attire,B,38,99,1991,StudyProc5,JOL,BlockProc2,Clothes - ?,38,wear,recallproc2,recall,0
IS_JOL B,6,2,3,BlockProc2,Plane - Pilot,B,39,99,2576,StudyProc5,JOL,BlockProc2,Plane - ?,39,sky,recallproc2,recall,0
IS_JOL B,6,2,3,BlockProc2,Fire - Blaze,B,40,0,5382,StudyProc5,JOL,BlockProc2,Fire - ?,40,,recallproc2,recall,0
IS_JOL B,6,2,3,BlockProc2,Due - Assignment,S,41,99,1970,StudyProc8,JOL,BlockProc2,Due - ?,41,rent,recallproc2,recall,0
IS_JOL B,6,2,3,BlockProc2,Number - Amount,S,42,50,3488,StudyProc8,JOL,BlockProc2,Number - ?,42,count,recallproc2,recall,0
IS_JOL B,6,2,3,BlockProc2,Location - Site,S,43,50,2913,StudyProc8,JOL,BlockProc2,Location - ?,43,time,recallproc2,recall,0
IS_JOL B,6,2,3,BlockProc2,Dump - Waste,S,44,50,2868,StudyProc8,JOL,BlockProc2,Dump - ?,44,trash,recallproc2,recall,0
IS_JOL B,6,2,3,BlockProc2,Trial - Jury,S,45,99,2044,StudyProc8,JOL,BlockProc2,Trial - ?,45,error,recallproc2,recall,0
IS_JOL B,6,2,3,BlockProc2,Architecture - Design,S,46,99,2859,StudyProc8,JOL,BlockProc2,Architecture - ?,46,design,recallproc2,recall,1
IS_JOL B,6,2,3,BlockProc2,Grill - Bar,S,47,55,5860,StudyProc8,JOL,BlockProc2,Grill - ?,47,chicken,recallproc2,recall,0
IS_JOL B,6,2,3,BlockProc2,Kidney - Liver,S,48,99,2595,StudyProc8,JOL,BlockProc2,Kidney - ?,48,stomach,recallproc2,recall,0
IS_JOL B,6,2,3,BlockProc2,Begin - End,S,49,55,3621,StudyProc8,JOL,BlockProc2,Begin - ?,49,start,recallproc2,recall,0
IS_JOL B,6,2,3,BlockProc2,Blow - Wind,S,50,99,1600,StudyProc8,JOL,BlockProc2,Blow - ?,50,dry,recallproc2,recall,0
IS_JOL B,6,2,3,BlockProc2,Pop - Soda,S,51,99,4117,StudyProc8,JOL,BlockProc2,Pop - ?,51,burst,recallproc2,recall,0
IS_JOL B,6,2,3,BlockProc2,Wine - Cheese,S,52,0,2471,StudyProc8,JOL,BlockProc2,Wine - ?,52,bottle,recallproc2,recall,0
IS_JOL B,6,2,3,BlockProc2,Bathroom - Toilet,S,53,99,7662,StudyProc8,JOL,BlockProc2,Bathroom - ?,53,tissue,recallproc2,recall,0
IS_JOL B,6,2,3,BlockProc2,Lettuce - Salad,S,54,99,2153,StudyProc8,JOL,BlockProc2,Lettuce - ?,54,vegetable,recallproc2,recall,0
IS_JOL B,6,2,3,BlockProc2,Shoe - Foot,S,55,75,4023,StudyProc8,JOL,BlockProc2,Shoe - ?,55,lace,recallproc2,recall,0
IS_JOL B,6,2,3,BlockProc2,Past - Future,S,56,99,1960,StudyProc8,JOL,BlockProc2,Past - ?,56,future,recallproc2,recall,1
IS_JOL B,6,2,3,BlockProc2,Choice - Decision,S,57,99,1897,StudyProc8,JOL,BlockProc2,Choice - ?,57,option,recallproc2,recall,0
IS_JOL B,6,2,3,BlockProc2,Honey - Bee,S,58,99,1987,StudyProc8,JOL,BlockProc2,Honey - ?,58,bee,recallproc2,recall,1
IS_JOL B,6,2,3,BlockProc2,Baby - Child,S,59,99,2563,StudyProc8,JOL,BlockProc2,Baby - ?,59,cry,recallproc2,recall,0
IS_JOL B,6,2,3,BlockProc2,Circle - Round,S,60,99,1941,StudyProc8,JOL,BlockProc2,Circle - ?,60,round,recallproc2,recall,1
IS_JOL B,6,2,3,BlockProc2,Pusher - Clutter,U,61,25,4554,StudyProc8,JOL,BlockProc2,Pusher - ?,61,,recallproc2,recall,0
IS_JOL B,6,2,3,BlockProc2,Dietary - Slacking,U,62,10,2590,StudyProc8,JOL,BlockProc2,Dietary - ?,62,food,recallproc2,recall,0
IS_JOL B,6,2,3,BlockProc2,Park - Hungry,U,63,10,4026,StudyProc8,JOL,BlockProc2,Park - ?,63,tree,recallproc2,recall,0
IS_JOL B,6,2,3,BlockProc2,Lift - Woman,U,64,0,1974,StudyProc8,JOL,BlockProc2,Lift - ?,64,,recallproc2,recall,0
IS_JOL B,6,2,3,BlockProc2,Soon - Belt,U,65,10,3543,StudyProc8,JOL,BlockProc2,Soon - ?,65,began,recallproc2,recall,0
IS_JOL B,6,2,3,BlockProc2,Discover - Floor,U,66,30,2697,StudyProc8,JOL,BlockProc2,Discover - ?,66,find,recallproc2,recall,0
IS_JOL B,6,2,3,BlockProc2,Death - Business,U,67,0,3776,StudyProc8,JOL,BlockProc2,Death - ?,67,loss,recallproc2,recall,0
IS_JOL B,6,2,3,BlockProc2,Debate - Sight,U,68,10,2611,StudyProc8,JOL,BlockProc2,Debate - ?,68,argue,recallproc2,recall,0
IS_JOL B,6,2,3,BlockProc2,Artery - Bronze,U,69,0,4852,StudyProc8,JOL,BlockProc2,Artery - ?,69,,recallproc2,recall,0
IS_JOL B,6,2,3,BlockProc2,Fix - Hand,U,70,50,3465,StudyProc8,JOL,BlockProc2,Fix - ?,70,break,recallproc2,recall,0
IS_JOL B,6,2,3,BlockProc2,Machine - Position,U,71,0,3206,StudyProc8,JOL,BlockProc2,Machine - ?,71,broken,recallproc2,recall,0
IS_JOL B,6,2,3,BlockProc2,Happy - Car,U,72,0,3305,StudyProc8,JOL,BlockProc2,Happy - ?,72,smile,recallproc2,recall,0
IS_JOL B,6,2,3,BlockProc2,Allow - Tuck,U,73,0,2935,StudyProc8,JOL,BlockProc2,Allow - ?,73,,recallproc2,recall,0
IS_JOL B,6,2,3,BlockProc2,Art - Lion,U,74,0,1879,StudyProc8,JOL,BlockProc2,Art - ?,74,letters,recallproc2,recall,0
IS_JOL B,6,2,3,BlockProc2,Strong - Accident,U,75,0,2611,StudyProc8,JOL,BlockProc2,Strong - ?,75,,recallproc2,recall,0
IS_JOL B,6,2,3,BlockProc2,Sugar - Riddle,U,76,10,2623,StudyProc8,JOL,BlockProc2,Sugar - ?,76,sweet,recallproc2,recall,0
IS_JOL B,6,2,3,BlockProc2,Valley - Add,U,77,30,3534,StudyProc8,JOL,BlockProc2,Valley - ?,77,hill,recallproc2,recall,0
IS_JOL B,6,2,3,BlockProc2,Cash - Would,U,78,0,2982,StudyProc8,JOL,BlockProc2,Cash - ?,78,money,recallproc2,recall,0
IS_JOL B,6,2,3,BlockProc2,Hide - Sick,U,79,0,3736,StudyProc8,JOL,BlockProc2,Hide - ?,79,seek,recallproc2,recall,0
IS_JOL B,6,2,3,BlockProc2,King - Vase,U,80,0,2260,StudyProc8,JOL,BlockProc2,King - ?,80,,recallproc2,recall,0
IS_JOL C,7,1,3,BlockProc1,Bad - Delinquent,F,1,60,4824,StudyProc7,JOL,BlockProc1,Bad - ?,1,delinquent,recallproc1,recall,1
IS_JOL C,7,1,3,BlockProc1,Stomach - Digestion,F,2,80,2873,StudyProc7,JOL,BlockProc1,Stomach - ?,2,liver,recallproc1,recall,0
IS_JOL C,7,1,3,BlockProc1,Money - Wage,F,3,65,11831,StudyProc7,JOL,BlockProc1,Money - ?,3,wage,recallproc1,recall,1
IS_JOL C,7,1,3,BlockProc1,Hammer - Chisel,F,4,30,3609,StudyProc7,JOL,BlockProc1,Hammer - ?,4,,recallproc1,recall,0
IS_JOL C,7,1,3,BlockProc1,News - Editor,F,5,65,9877,StudyProc7,JOL,BlockProc1,News - ?,5,editor,recallproc1,recall,1
IS_JOL C,7,1,3,BlockProc1,Sting - Hornet,F,6,83,4908,StudyProc7,JOL,BlockProc1,Sting - ?,6,hornet,recallproc1,recall,1
IS_JOL C,7,1,3,BlockProc1,Cold - Bitter,F,7,40,5764,StudyProc7,JOL,BlockProc1,Cold - ?,7,,recallproc1,recall,0
IS_JOL C,7,1,3,BlockProc1,Plant - Root,F,8,60,11805,StudyProc7,JOL,BlockProc1,Plant - ?,8,root,recallproc1,recall,1
IS_JOL C,7,1,3,BlockProc1,Bird - Swan,F,9,68,5707,StudyProc7,JOL,BlockProc1,Bird - ?,9,house,recallproc1,recall,0
IS_JOL C,7,1,3,BlockProc1,Dog - Paw,F,10,70,3946,StudyProc7,JOL,BlockProc1,Dog - ?,10,paw,recallproc1,recall,1
IS_JOL C,7,1,3,BlockProc1,Out - Way,F,11,60,6903,StudyProc7,JOL,BlockProc1,Out - ?,11,way,recallproc1,recall,1
IS_JOL C,7,1,3,BlockProc1,Clean - Hygiene,F,12,80,3948,StudyProc7,JOL,BlockProc1,Clean - ?,12,,recallproc1,recall,0
IS_JOL C,7,1,3,BlockProc1,Water - Bridge,F,13,60,4944,StudyProc7,JOL,BlockProc1,Water - ?,13,bridge,recallproc1,recall,1
IS_JOL C,7,1,3,BlockProc1,Rock - Geology,F,14,65,8453,StudyProc7,JOL,BlockProc1,Rock - ?,14,geology,recallproc1,recall,1
IS_JOL C,7,1,3,BlockProc1,War - Revolution,F,15,60,4450,StudyProc7,JOL,BlockProc1,War - ?,15,revolution,recallproc1,recall,1
IS_JOL C,7,1,3,BlockProc1,Talk - Discussion,F,16,80,3524,StudyProc7,JOL,BlockProc1,Talk - ?,16,discuss,recallproc1,recall,1
IS_JOL C,7,1,3,BlockProc1,Cow - Herd,F,17,53,5565,StudyProc7,JOL,BlockProc1,Cow - ?,17,herd,recallproc1,recall,1
IS_JOL C,7,1,3,BlockProc1,Card - Credit,F,18,80,4026,StudyProc7,JOL,BlockProc1,Card - ?,18,,recallproc1,recall,0
IS_JOL C,7,1,3,BlockProc1,Flower - Orchid,F,19,70,4328,StudyProc7,JOL,BlockProc1,Flower - ?,19,orchid,recallproc1,recall,1
IS_JOL C,7,1,3,BlockProc1,Fish - Tuna,F,20,75,2866,StudyProc7,JOL,BlockProc1,Fish - ?,20,tuna,recallproc1,recall,1
IS_JOL C,7,1,3,BlockProc1,Enough - Full,B,21,72,5096,StudyProc7,JOL,BlockProc1,Enough - ?,21,,recallproc1,recall,0
IS_JOL C,7,1,3,BlockProc1,Sip - Drink,B,22,63,4377,StudyProc7,JOL,BlockProc1,Sip - ?,22,,recallproc1,recall,0
IS_JOL C,7,1,3,BlockProc1,Cave - Dark,B,23,80,4256,StudyProc7,JOL,BlockProc1,Cave - ?,23,dark,recallproc1,recall,1
IS_JOL C,7,1,3,BlockProc1,Seize - Take,B,24,66,5633,StudyProc7,JOL,BlockProc1,Seize - ?,24,take,recallproc1,recall,1
IS_JOL C,7,1,3,BlockProc1,Growth - Height,B,25,77,10682,StudyProc7,JOL,BlockProc1,Growth - ?,25,height,recallproc1,recall,1
IS_JOL C,7,1,3,BlockProc1,Word - Sentence,B,26,70,7979,StudyProc7,JOL,BlockProc1,Word - ?,26,,recallproc1,recall,0
IS_JOL C,7,1,3,BlockProc1,Wasp - Bug,B,27,60,4271,StudyProc7,JOL,BlockProc1,Wasp - ?,27,bug,recallproc1,recall,1
IS_JOL C,7,1,3,BlockProc1,Division - Math,B,28,50,6183,StudyProc7,JOL,BlockProc1,Division - ?,28,math,recallproc1,recall,1
IS_JOL C,7,1,3,BlockProc1,Attorney - Law,B,29,69,8985,StudyProc7,JOL,BlockProc1,Attorney - ?,29,law,recallproc1,recall,1
IS_JOL C,7,1,3,BlockProc1,Fantastic - Great,B,30,80,3928,StudyProc7,JOL,BlockProc1,Fantastic - ?,30,good,recallproc1,recall,0
IS_JOL C,7,1,3,BlockProc1,Latch - Key,B,31,48,4964,StudyProc7,JOL,BlockProc1,Latch - ?,31,door,recallproc1,recall,0
IS_JOL C,7,1,3,BlockProc1,Chili - Hot,B,32,55,8079,StudyProc7,JOL,BlockProc1,Chili - ?,32,hot,recallproc1,recall,1
IS_JOL C,7,1,3,BlockProc1,Racket - Ball,B,33,67,3722,StudyProc7,JOL,BlockProc1,Racket - ?,33,ball,recallproc1,recall,1
IS_JOL C,7,1,3,BlockProc1,Chore - Work,B,34,67,11397,StudyProc7,JOL,BlockProc1,Chore - ?,34,work,recallproc1,recall,1
IS_JOL C,7,1,3,BlockProc1,Famine - Hunger,B,35,62,5702,StudyProc7,JOL,BlockProc1,Famine - ?,35,hunger,recallproc1,recall,1
IS_JOL C,7,1,3,BlockProc1,Drowsy - Sleep,B,36,54,9342,StudyProc7,JOL,BlockProc1,Drowsy - ?,36,sleep,recallproc1,recall,1
IS_JOL C,7,1,3,BlockProc1,Stench - Smell,B,37,50,5944,StudyProc7,JOL,BlockProc1,Stench - ?,37,smell,recallproc1,recall,1
IS_JOL C,7,1,3,BlockProc1,Attire - Clothes,B,38,85,5699,StudyProc7,JOL,BlockProc1,Attire - ?,38,lothes,recallproc1,recall,1
IS_JOL C,7,1,3,BlockProc1,Pilot - Plane,B,39,76,6530,StudyProc7,JOL,BlockProc1,Pilot - ?,39,plane,recallproc1,recall,1
IS_JOL C,7,1,3,BlockProc1,Blaze - Fire,B,40,75,4330,StudyProc7,JOL,BlockProc1,Blaze - ?,40,fire,recallproc1,recall,1
IS_JOL C,7,1,3,BlockProc1,Assignment - Due,S,41,60,4519,StudyProc3,JOL,BlockProc1,Assignment - ?,41,due,recallproc1,recall,1
IS_JOL C,7,1,3,BlockProc1,Amount - Number,S,42,60,3149,StudyProc3,JOL,BlockProc1,Amount - ?,42,wage,recallproc1,recall,0
IS_JOL C,7,1,3,BlockProc1,Site - Location,S,43,80,2947,StudyProc3,JOL,BlockProc1,Site - ?,43,location,recallproc1,recall,1
IS_JOL C,7,1,3,BlockProc1,Waste - Dump,S,44,65,11226,StudyProc3,JOL,BlockProc1,Waste - ?,44,,recallproc1,recall,0
IS_JOL C,7,1,3,BlockProc1,Jury - Trial,S,45,80,2798,StudyProc3,JOL,BlockProc1,Jury - ?,45,court,recallproc1,recall,0
IS_JOL C,7,1,3,BlockProc1,Design - Architecture,S,46,85,3745,StudyProc3,JOL,BlockProc1,Design - ?,46,architecture,recallproc1,recall,1
IS_JOL C,7,1,3,BlockProc1,Bar - Grill,S,47,75,4403,StudyProc3,JOL,BlockProc1,Bar - ?,47,,recallproc1,recall,0
IS_JOL C,7,1,3,BlockProc1,Liver - Kidney,S,48,70,2687,StudyProc3,JOL,BlockProc1,Liver - ?,48,stomach,recallproc1,recall,0
IS_JOL C,7,1,3,BlockProc1,End - Begin,S,49,90,1850,StudyProc3,JOL,BlockProc1,End - ?,49,begin,recallproc1,recall,1
IS_JOL C,7,1,3,BlockProc1,Wind - Blow,S,50,70,6421,StudyProc3,JOL,BlockProc1,Wind - ?,50,blow,recallproc1,recall,1
IS_JOL C,7,1,3,BlockProc1,Soda - Pop,S,51,90,2934,StudyProc3,JOL,BlockProc1,Soda - ?,51,pop,recallproc1,recall,1
IS_JOL C,7,1,3,BlockProc1,Cheese - Wine,S,52,65,6377,StudyProc3,JOL,BlockProc1,Cheese - ?,52,wine,recallproc1,recall,1
IS_JOL C,7,1,3,BlockProc1,Toilet - Bathroom,S,53,70,5206,StudyProc3,JOL,BlockProc1,Toilet - ?,53,bathroom,recallproc1,recall,1
IS_JOL C,7,1,3,BlockProc1,Salad - Lettuce,S,54,75,4918,StudyProc3,JOL,BlockProc1,Salad - ?,54,lettuce,recallproc1,recall,1
IS_JOL C,7,1,3,BlockProc1,Foot - Shoe,S,55,80,5702,StudyProc3,JOL,BlockProc1,Foot - ?,55,shoe,recallproc1,recall,1
IS_JOL C,7,1,3,BlockProc1,Future - Past,S,56,80,2578,StudyProc3,JOL,BlockProc1,Future - ?,56,past,recallproc1,recall,1
IS_JOL C,7,1,3,BlockProc1,Decision - Choise,S,57,60,3833,StudyProc3,JOL,BlockProc1,Decision - ?,57,choice,recallproc1,recall,1
IS_JOL C,7,1,3,BlockProc1,Bee - Honey,S,58,75,3252,StudyProc3,JOL,BlockProc1,Bee - ?,58,honey,recallproc1,recall,1
IS_JOL C,7,1,3,BlockProc1,Child - Baby,S,59,80,4658,StudyProc3,JOL,BlockProc1,Child - ?,59,baby,recallproc1,recall,1
IS_JOL C,7,1,3,BlockProc1,Round - Circle,S,60,95,7423,StudyProc3,JOL,BlockProc1,Round - ?,60,circle,recallproc1,recall,1
IS_JOL C,7,1,3,BlockProc1,Clutter - Pusher,U,61,30,11039,StudyProc3,JOL,BlockProc1,Clutter - ?,61,,recallproc1,recall,0
IS_JOL C,7,1,3,BlockProc1,Sacking -Dietary,U,62,20,4044,StudyProc3,JOL,BlockProc1,Sacking - ?,62,,recallproc1,recall,0
IS_JOL C,7,1,3,BlockProc1,Hungry - Park,U,63,25,11372,StudyProc3,JOL,BlockProc1,Hungry - ?,63,,recallproc1,recall,0
IS_JOL C,7,1,3,BlockProc1,Woman - Lift,U,64,70,5505,StudyProc3,JOL,BlockProc1,Woman - ?,64,lifter,recallproc1,recall,1
IS_JOL C,7,1,3,BlockProc1,Belt - Soon,U,65,26,6315,StudyProc3,JOL,BlockProc1,Belt - ?,65,,recallproc1,recall,0
IS_JOL C,7,1,3,BlockProc1,Floor - Discover,U,66,40,3446,StudyProc3,JOL,BlockProc1,Floor - ?,66,discover,recallproc1,recall,1
IS_JOL C,7,1,3,BlockProc1,Business - Death,U,67,30,8258,StudyProc3,JOL,BlockProc1,Business - ?,67,,recallproc1,recall,0
IS_JOL C,7,1,3,BlockProc1,Sight - Debate,U,68,40,7729,StudyProc3,JOL,BlockProc1,Sight - ?,68,,recallproc1,recall,0
IS_JOL C,7,1,3,BlockProc1,Bronze - Artery,U,69,40,5775,StudyProc3,JOL,BlockProc1,Bronze - ?,69,,recallproc1,recall,0
IS_JOL C,7,1,3,BlockProc1,Hand - Fix,U,70,50,3530,StudyProc3,JOL,BlockProc1,Hand - ?,70,,recallproc1,recall,0
IS_JOL C,7,1,3,BlockProc1,Position - Machine,U,71,25,11333,StudyProc3,JOL,BlockProc1,Position - ?,71,,recallproc1,recall,0
IS_JOL C,7,1,3,BlockProc1,Car - Happy,U,72,33,5950,StudyProc3,JOL,BlockProc1,Car - ?,72,happy,recallproc1,recall,1
IS_JOL C,7,1,3,BlockProc1,Tuck - Allow,U,73,35,4485,StudyProc3,JOL,BlockProc1,Tuck - ?,73,,recallproc1,recall,0
IS_JOL C,7,1,3,BlockProc1,Lion - Art,U,74,38,6789,StudyProc3,JOL,BlockProc1,Lion - ?,74,art,recallproc1,recall,1
IS_JOL C,7,1,3,BlockProc1,Accident - Strong,U,75,45,5326,StudyProc3,JOL,BlockProc1,Accident - ?,75,,recallproc1,recall,0
IS_JOL C,7,1,3,BlockProc1,Riddle - Sugar,U,76,28,8069,StudyProc3,JOL,BlockProc1,Riddle - ?,76,,recallproc1,recall,0
IS_JOL C,7,1,3,BlockProc1,Add - Valley,U,77,20,2846,StudyProc3,JOL,BlockProc1,Add - ?,77,,recallproc1,recall,0
IS_JOL C,7,1,3,BlockProc1,Would - Cash,U,78,80,5371,StudyProc3,JOL,BlockProc1,Would - ?,78,,recallproc1,recall,0
IS_JOL C,7,1,3,BlockProc1,Sick - Hide,U,79,45,10226,StudyProc3,JOL,BlockProc1,Sick - ?,79,,recallproc1,recall,0
IS_JOL C,7,1,3,BlockProc1,Vase - King,U,80,30,3439,StudyProc3,JOL,BlockProc1,Vase - ?,80,king,recallproc1,recall,1
IS_JOL C,7,2,3,BlockProc2,Long - Extension,B,1,50,5467,StudyProc8,JOL,BlockProc2,Long - ?,1,,recallproc2,recall,0
IS_JOL C,7,2,3,BlockProc2,Game - Clue,B,2,50,3406,StudyProc8,JOL,BlockProc2,Game - ?,2,,recallproc2,recall,0
IS_JOL C,7,2,3,BlockProc2,Plant - Cactus,B,3,50,2748,StudyProc8,JOL,BlockProc2,Plant - ?,3,root,recallproc2,recall,0
IS_JOL C,7,2,3,BlockProc2,Tie - Shoelace,B,4,57,2931,StudyProc8,JOL,BlockProc2,Tie - ?,4,,recallproc2,recall,0
IS_JOL C,7,2,3,BlockProc2,Mystery - Detective,B,5,82,4286,StudyProc8,JOL,BlockProc2,Mystery - ?,5,detective,recallproc2,recall,1
IS_JOL C,7,2,3,BlockProc2,End - Adjourn,B,6,40,4723,StudyProc8,JOL,BlockProc2,End - ?,6,begin,recallproc2,recall,0
IS_JOL C,7,2,3,BlockProc2,Dog - Furry,B,7,69,5425,StudyProc8,JOL,BlockProc2,Dog - ?,7,paw,recallproc2,recall,0
IS_JOL C,7,2,3,BlockProc2,Trash - Litter,B,8,85,3040,StudyProc8,JOL,BlockProc2,Trash - ?,8,,recallproc2,recall,0
IS_JOL C,7,2,3,BlockProc2,Red - Cherry,B,9,95,2549,StudyProc8,JOL,BlockProc2,Red - ?,9,,recallproc2,recall,0
IS_JOL C,7,2,3,BlockProc2,Head - Scalp,B,10,70,4485,StudyProc8,JOL,BlockProc2,Head - ?,10,scalp,recallproc2,recall,1
IS_JOL C,7,2,3,BlockProc2,Car - Driver,B,11,75,2873,StudyProc8,JOL,BlockProc2,Car - ?,11,happy,recallproc2,recall,0
IS_JOL C,7,2,3,BlockProc2,Cut - Chop,B,12,95,5920,StudyProc8,JOL,BlockProc2,Cut - ?,12,chop,recallproc2,recall,1
IS_JOL C,7,2,3,BlockProc2,Donkey - Mule,B,13,70,2638,StudyProc8,JOL,BlockProc2,Donkey - ?,13,mule,recallproc2,recall,1
IS_JOL C,7,2,3,BlockProc2,Paper - Document,B,14,78,5024,StudyProc8,JOL,BlockProc2,Paper - ?,14,document,recallproc2,recall,1
IS_JOL C,7,2,3,BlockProc2,Smell - Incense,B,15,20,2316,StudyProc8,JOL,BlockProc2,Smell - ?,15,,recallproc2,recall,0
IS_JOL C,7,2,3,BlockProc2,Eat - Dine,B,16,74,6261,StudyProc8,JOL,BlockProc2,Eat - ?,16,dine,recallproc2,recall,1
IS_JOL C,7,2,3,BlockProc2,Scissors - Shears,B,17,65,2983,StudyProc8,JOL,BlockProc2,Scissors - ?,17,sheers,recallproc2,recall,1
IS_JOL C,7,2,3,BlockProc2,Fight - Feud,B,18,73,5759,StudyProc8,JOL,BlockProc2,Fight - ?,18,brawl,recallproc2,recall,0
IS_JOL C,7,2,3,BlockProc2,Cold - Chill,B,19,50,3945,StudyProc8,JOL,BlockProc2,Cold - ?,19,chill,recallproc2,recall,1
IS_JOL C,7,2,3,BlockProc2,Love - Affection,B,20,87,4653,StudyProc8,JOL,BlockProc2,Love - ?,20,,recallproc2,recall,0
IS_JOL C,7,2,3,BlockProc2,Flip - Turn,F,21,70,8633,StudyProc8,JOL,BlockProc2,Flip - ?,21,turn,recallproc2,recall,1
IS_JOL C,7,2,3,BlockProc2,Windshield - Car,F,22,70,4340,StudyProc8,JOL,BlockProc2,Windshield - ?,22,car,recallproc2,recall,1
IS_JOL C,7,2,3,BlockProc2,Villain - Bad,F,23,80,4769,StudyProc8,JOL,BlockProc2,Villain - ?,23,bad,recallproc2,recall,1
IS_JOL C,7,2,3,BlockProc2,Penguin - Bird,F,24,80,4356,StudyProc8,JOL,BlockProc2,Penguin - ?,24,bird,recallproc2,recall,1
IS_JOL C,7,2,3,BlockProc2,Actress - Star,F,25,75,2456,StudyProc8,JOL,BlockProc2,Actress - ?,25,star,recallproc2,recall,1
IS_JOL C,7,2,3,BlockProc2,Thimble - Thread,F,26,50,4501,StudyProc8,JOL,BlockProc2,Thimble - ?,26,sew,recallproc2,recall,0
IS_JOL C,7,2,3,BlockProc2,Revenge - Even,F,27,62,5572,StudyProc8,JOL,BlockProc2,Revenge - ?,27,,recallproc2,recall,0
IS_JOL C,7,2,3,BlockProc2,Balloon - Pop,F,28,75,6547,StudyProc8,JOL,BlockProc2,Balloon - ?,28,pop,recallproc2,recall,1
IS_JOL C,7,2,3,BlockProc2,Strawberry - Fruit,F,29,62,5434,StudyProc8,JOL,BlockProc2,Strawberry - ?,29,fruit,recallproc2,recall,1
IS_JOL C,7,2,3,BlockProc2,Favorite - Best,F,30,80,5209,StudyProc8,JOL,BlockProc2,Favorite - ?,30,best,recallproc2,recall,1
IS_JOL C,7,2,3,BlockProc2,Panther - Cat,F,31,60,4765,StudyProc8,JOL,BlockProc2,Panther - ?,31,cat,recallproc2,recall,1
IS_JOL C,7,2,3,BlockProc2,Breakable - Glass,F,32,85,4962,StudyProc8,JOL,BlockProc2,Breakable - ?,32,glass,recallproc2,recall,1
IS_JOL C,7,2,3,BlockProc2,Coffin - Dead,F,33,76,5617,StudyProc8,JOL,BlockProc2,Coffin - ?,33,death,recallproc2,recall,0
IS_JOL C,7,2,3,BlockProc2,Aircraft - Plane,F,34,75,3498,StudyProc8,JOL,BlockProc2,Aircraft - ?,34,plane,recallproc2,recall,1
IS_JOL C,7,2,3,BlockProc2,Sardine - Fish,F,35,90,3660,StudyProc8,JOL,BlockProc2,Sardine - ?,35,fish,recallproc2,recall,1
IS_JOL C,7,2,3,BlockProc2,League - Baseball,F,36,70,4537,StudyProc8,JOL,BlockProc2,League - ?,36,baseball,recallproc2,recall,1
IS_JOL C,7,2,3,BlockProc2,Banker - Money,F,37,90,5431,StudyProc8,JOL,BlockProc2,Banker - ?,37,money,recallproc2,recall,1
IS_JOL C,7,2,3,BlockProc2,Truthful - Honest,F,38,59,6752,StudyProc8,JOL,BlockProc2,Truthful - ?,38,honest,recallproc2,recall,1
IS_JOL C,7,2,3,BlockProc2,Nap - Sleep,F,39,84,4123,StudyProc8,JOL,BlockProc2,Nap - ?,39,sleep,recallproc2,recall,1
IS_JOL C,7,2,3,BlockProc2,Brawl - Fight,F,40,40,5129,StudyProc8,JOL,BlockProc2,Brawl - ?,40,fight,recallproc2,recall,1
IS_JOL C,7,2,3,BlockProc2,Shave - Razor,S,41,70,1866,StudyProc5,JOL,BlockProc2,Shave - ?,41,,recallproc2,recall,0
IS_JOL C,7,2,3,BlockProc2,Equal - Rights,S,42,90,2760,StudyProc5,JOL,BlockProc2,Equal - ?,42,rights,recallproc2,recall,1
IS_JOL C,7,2,3,BlockProc2,Jar - Mason,S,43,90,3183,StudyProc5,JOL,BlockProc2,Jar - ?,43,mason,recallproc2,recall,1
IS_JOL C,7,2,3,BlockProc2,Wax - Candle,S,44,86,4984,StudyProc5,JOL,BlockProc2,Wax - ?,44,candle,recallproc2,recall,1
IS_JOL C,7,2,3,BlockProc2,Bracelet - Wrist,S,45,70,4160,StudyProc5,JOL,BlockProc2,Bracelet - ?,45,wrist,recallproc2,recall,1
IS_JOL C,7,2,3,BlockProc2,Carbon - Element,S,46,65,4831,StudyProc5,JOL,BlockProc2,Carbon - ?,46,element,recallproc2,recall,1
IS_JOL C,7,2,3,BlockProc2,Away - Gone,S,47,85,2663,StudyProc5,JOL,BlockProc2,Away - ?,47,,recallproc2,recall,0
IS_JOL C,7,2,3,BlockProc2,Drink - Water,S,48,70,2406,StudyProc5,JOL,BlockProc2,Drink - ?,48,water,recallproc2,recall,1
IS_JOL C,7,2,3,BlockProc2,Ground - Earth,S,49,80,2153,StudyProc5,JOL,BlockProc2,Ground - ?,49,earth,recallproc2,recall,1
IS_JOL C,7,2,3,BlockProc2,Lonely - Alone,S,50,86,3119,StudyProc5,JOL,BlockProc2,Lonely - ?,50,alone,recallproc2,recall,1
IS_JOL C,7,2,3,BlockProc2,Wet - Dry,S,51,80,2374,StudyProc5,JOL,BlockProc2,Wet - ?,51,water,recallproc2,recall,0
IS_JOL C,7,2,3,BlockProc2,Seatbelt - Safety,S,52,65,4167,StudyProc5,JOL,BlockProc2,Seatbelt - ?,52,saftey,recallproc2,recall,1
IS_JOL C,7,2,3,BlockProc2,Lie - Truth,S,53,87,5697,StudyProc5,JOL,BlockProc2,Lie - ?,53,,recallproc2,recall,0
IS_JOL C,7,2,3,BlockProc2,Communication - Phone,S,54,75,4984,StudyProc5,JOL,BlockProc2,Communication - ?,54,talk,recallproc2,recall,0
IS_JOL C,7,2,3,BlockProc2,Reel - Rod,S,55,80,7574,StudyProc5,JOL,BlockProc2,Reel - ?,55,rod,recallproc2,recall,1
IS_JOL C,7,2,3,BlockProc2,Tick - Flea,S,56,73,4703,StudyProc5,JOL,BlockProc2,Tick - ?,56,flea,recallproc2,recall,1
IS_JOL C,7,2,3,BlockProc2,Noise - Loud,S,57,75,3536,StudyProc5,JOL,BlockProc2,Noise - ?,57,loud,recallproc2,recall,1
IS_JOL C,7,2,3,BlockProc2,Have - Own,S,58,70,4692,StudyProc5,JOL,BlockProc2,Have - ?,58,own,recallproc2,recall,1
IS_JOL C,7,2,3,BlockProc2,Temper - Tantrum,S,59,70,5526,StudyProc5,JOL,BlockProc2,Temper - ?,59,tantrm,recallproc2,recall,1
IS_JOL C,7,2,3,BlockProc2,Tan - Sun,S,60,67,2797,StudyProc5,JOL,BlockProc2,Tan - ?,60,sun,recallproc2,recall,1
IS_JOL C,7,2,3,BlockProc2,Maroon - Justice,U,61,20,3622,StudyProc5,JOL,BlockProc2,Maroon - ?,61,,recallproc2,recall,0
IS_JOL C,7,2,3,BlockProc2,Cloth - Stretch,U,62,50,3785,StudyProc5,JOL,BlockProc2,Cloth - ?,62,,recallproc2,recall,0
IS_JOL C,7,2,3,BlockProc2,Steak - Give,U,63,50,6874,StudyProc5,JOL,BlockProc2,Steak - ?,63,give,recallproc2,recall,1
IS_JOL C,7,2,3,BlockProc2,Election - Maze,U,64,20,3085,StudyProc5,JOL,BlockProc2,Election - ?,64,,recallproc2,recall,0
IS_JOL C,7,2,3,BlockProc2,Charm - Vehicle,U,65,40,6348,StudyProc5,JOL,BlockProc2,Charm - ?,65,,recallproc2,recall,0
IS_JOL C,7,2,3,BlockProc2,Obtain - Meat,U,66,30,3360,StudyProc5,JOL,BlockProc2,Obtain - ?,66,have,recallproc2,recall,0
IS_JOL C,7,2,3,BlockProc2,Able - Crackle,U,67,34,6229,StudyProc5,JOL,BlockProc2,Able - ?,67,,recallproc2,recall,0
IS_JOL C,7,2,3,BlockProc2,Shake - Shell,U,68,30,3253,StudyProc5,JOL,BlockProc2,Shake - ?,68,,recallproc2,recall,0
IS_JOL C,7,2,3,BlockProc2,Fiction - Listen,U,69,49,4274,StudyProc5,JOL,BlockProc2,Fiction - ?,69,,recallproc2,recall,0
IS_JOL C,7,2,3,BlockProc2,Joke - Keys,U,70,40,3447,StudyProc5,JOL,BlockProc2,Joke - ?,70,,recallproc2,recall,0
IS_JOL C,7,2,3,BlockProc2,Clothes - Cake,U,71,27,4108,StudyProc5,JOL,BlockProc2,Clothes - ?,71,wardrobe,recallproc2,recall,0
IS_JOL C,7,2,3,BlockProc2,Hate - Name,U,72,76,4007,StudyProc5,JOL,BlockProc2,Hate - ?,72,,recallproc2,recall,0
IS_JOL C,7,2,3,BlockProc2,Bang - Fuzzy,U,73,30,9568,StudyProc5,JOL,BlockProc2,Bang - ?,73,,recallproc2,recall,0
IS_JOL C,7,2,3,BlockProc2,Clear - Moat,U,74,30,3339,StudyProc5,JOL,BlockProc2,Clear - ?,74,glass,recallproc2,recall,0
IS_JOL C,7,2,3,BlockProc2,Toil - Lease,U,75,30,4039,StudyProc5,JOL,BlockProc2,Toil - ?,75,,recallproc2,recall,0
IS_JOL C,7,2,3,BlockProc2,Sign - Loan,U,76,42,7096,StudyProc5,JOL,BlockProc2,Sign - ?,76,,recallproc2,recall,0
IS_JOL C,7,2,3,BlockProc2,Ounce - Both,U,77,35,5883,StudyProc5,JOL,BlockProc2,Ounce - ?,77,,recallproc2,recall,0
IS_JOL C,7,2,3,BlockProc2,Morning - Temperature,U,78,30,3824,StudyProc5,JOL,BlockProc2,Morning - ?,78,temperature,recallproc2,recall,1
IS_JOL C,7,2,3,BlockProc2,Children - Mirror,U,79,30,4177,StudyProc5,JOL,BlockProc2,Children - ?,79,baby,recallproc2,recall,1
IS_JOL C,7,2,3,BlockProc2,Scar - Main,U,80,35,4515,StudyProc5,JOL,BlockProc2,Scar - ?,80,,recallproc2,recall,0
IS_JOL D,8,1,3,BlockProc1,Long - Extension,B,1,100,2312,StudyProc3,JOL,BlockProc1,Long - ?,1,short,recallproc1,recall,0
IS_JOL D,8,1,3,BlockProc1,Game - Clue,B,2,70,2439,StudyProc3,JOL,BlockProc1,Game - ?,2,play,recallproc1,recall,0
IS_JOL D,8,1,3,BlockProc1,Plant - Cactus,B,3,80,2968,StudyProc3,JOL,BlockProc1,Plant - ?,3,,recallproc1,recall,0
IS_JOL D,8,1,3,BlockProc1,Tie - Shoelace,B,4,90,2065,StudyProc3,JOL,BlockProc1,Tie - ?,4,,recallproc1,recall,0
IS_JOL D,8,1,3,BlockProc1,Mystery - Detective,B,5,20,2911,StudyProc3,JOL,BlockProc1,Mystery - ?,5,fiction,recallproc1,recall,0
IS_JOL D,8,1,3,BlockProc1,End - Adjourn,B,6,10,3163,StudyProc3,JOL,BlockProc1,End - ?,6,,recallproc1,recall,0
IS_JOL D,8,1,3,BlockProc1,Dog - Furry,B,7,60,4284,StudyProc3,JOL,BlockProc1,Dog - ?,7,furry,recallproc1,recall,1
IS_JOL D,8,1,3,BlockProc1,Trash - Litter,B,8,100,2679,StudyProc3,JOL,BlockProc1,Trash - ?,8,can,recallproc1,recall,0
IS_JOL D,8,1,3,BlockProc1,Red - Cherry,B,9,90,1625,StudyProc3,JOL,BlockProc1,Red - ?,9,maroon,recallproc1,recall,0
IS_JOL D,8,1,3,BlockProc1,Head - Scalp,B,10,80,2832,StudyProc3,JOL,BlockProc1,Head - ?,10,,recallproc1,recall,0
IS_JOL D,8,1,3,BlockProc1,Car - Driver,B,11,90,1957,StudyProc3,JOL,BlockProc1,Car - ?,11,drive,recallproc1,recall,1
IS_JOL D,8,1,3,BlockProc1,Cut - Chop,B,12,90,1792,StudyProc3,JOL,BlockProc1,Cut - ?,12,scissors,recallproc1,recall,0
IS_JOL D,8,1,3,BlockProc1,Donkey - Mule,B,13,90,2155,StudyProc3,JOL,BlockProc1,Donkey - ?,13,,recallproc1,recall,0
IS_JOL D,8,1,3,BlockProc1,Paper - Document,B,14,100,3527,StudyProc3,JOL,BlockProc1,Paper - ?,14,olane,recallproc1,recall,0
IS_JOL D,8,1,3,BlockProc1,Smell - Incense,B,15,0,3206,StudyProc3,JOL,BlockProc1,Smell - ?,15,taste,recallproc1,recall,0
IS_JOL D,8,1,3,BlockProc1,Eat - Dine,B,16,100,2400,StudyProc3,JOL,BlockProc1,Eat - ?,16,,recallproc1,recall,0
IS_JOL D,8,1,3,BlockProc1,Scissors - Shears,B,17,20,3819,StudyProc3,JOL,BlockProc1,Scissors - ?,17,cut,recallproc1,recall,0
IS_JOL D,8,1,3,BlockProc1,Fight - Feud,B,18,60,6617,StudyProc3,JOL,BlockProc1,Fight - ?,18,brawl,recallproc1,recall,0
IS_JOL D,8,1,3,BlockProc1,Cold - Chill,B,19,90,4236,StudyProc3,JOL,BlockProc1,Cold - ?,19,weather,recallproc1,recall,0
IS_JOL D,8,1,3,BlockProc1,Love - Affection,B,20,90,2095,StudyProc3,JOL,BlockProc1,Love - ?,20,hate,recallproc1,recall,0
IS_JOL D,8,1,3,BlockProc1,Flip - Turn,F,21,50,3916,StudyProc3,JOL,BlockProc1,Flip - ?,21,coin,recallproc1,recall,0
IS_JOL D,8,1,3,BlockProc1,Windshield - Car,F,22,70,2862,StudyProc3,JOL,BlockProc1,Windshield - ?,22,wipers,recallproc1,recall,0
IS_JOL D,8,1,3,BlockProc1,Villain - Bad,F,23,100,3391,StudyProc3,JOL,BlockProc1,Villain - ?,23,hero,recallproc1,recall,0
IS_JOL D,8,1,3,BlockProc1,Penguin - Bird,F,24,30,2415,StudyProc3,JOL,BlockProc1,Penguin - ?,24,pen,recallproc1,recall,0
IS_JOL D,8,1,3,BlockProc1,Actress - Star,F,25,70,2379,StudyProc3,JOL,BlockProc1,Actress - ?,25,,recallproc1,recall,0
IS_JOL D,8,1,3,BlockProc1,Thimble - Thread,F,26,80,2486,StudyProc3,JOL,BlockProc1,Thimble - ?,26,thread,recallproc1,recall,1
IS_JOL D,8,1,3,BlockProc1,Revenge - Even,F,27,80,3828,StudyProc3,JOL,BlockProc1,Revenge - ?,27,,recallproc1,recall,0
IS_JOL D,8,1,3,BlockProc1,Balloon - Pop,F,28,90,2408,StudyProc3,JOL,BlockProc1,Balloon - ?,28,pop,recallproc1,recall,1
IS_JOL D,8,1,3,BlockProc1,Strawberry - Fruit,F,29,100,2599,StudyProc3,JOL,BlockProc1,Strawberry - ?,29,red,recallproc1,recall,0
IS_JOL D,8,1,3,BlockProc1,Favorite - Best,F,30,10,3065,StudyProc3,JOL,BlockProc1,Favorite - ?,30,,recallproc1,recall,0
IS_JOL D,8,1,3,BlockProc1,Panther - Cat,F,31,90,3150,StudyProc3,JOL,BlockProc1,Panther - ?,31,,recallproc1,recall,0
IS_JOL D,8,1,3,BlockProc1,Breakable - Glass,F,32,100,2686,StudyProc3,JOL,BlockProc1,Breakable - ?,32,glass,recallproc1,recall,1
IS_JOL D,8,1,3,BlockProc1,Coffin - Dead,F,33,100,4027,StudyProc3,JOL,BlockProc1,Coffin - ?,33,dead,recallproc1,recall,1
IS_JOL D,8,1,3,BlockProc1,Aircraft - Plane,F,34,80,3036,StudyProc3,JOL,BlockProc1,Aircraft - ?,34,plane,recallproc1,recall,1
IS_JOL D,8,1,3,BlockProc1,Sardine - Fish,F,35,30,2889,StudyProc3,JOL,BlockProc1,Sardine - ?,35,tin,recallproc1,recall,0
IS_JOL D,8,1,3,BlockProc1,League - Baseball,F,36,80,2154,StudyProc3,JOL,BlockProc1,League - ?,36,baseball,recallproc1,recall,1
IS_JOL D,8,1,3,BlockProc1,Banker - Money,F,37,90,1765,StudyProc3,JOL,BlockProc1,Banker - ?,37,money,recallproc1,recall,1
IS_JOL D,8,1,3,BlockProc1,Truthful - Honest,F,38,40,3047,StudyProc3,JOL,BlockProc1,Truthful - ?,38,,recallproc1,recall,0
IS_JOL D,8,1,3,BlockProc1,Nap - Sleep,F,39,100,2453,StudyProc3,JOL,BlockProc1,Nap - ?,39,tired,recallproc1,recall,0
IS_JOL D,8,1,3,BlockProc1,Brawl - Fight,F,40,50,5428,StudyProc3,JOL,BlockProc1,Brawl - ?,40,fight,recallproc1,recall,1
IS_JOL D,8,1,3,BlockProc1,Shave - Razor,S,41,50,2898,StudyProc7,JOL,BlockProc1,Shave - ?,41,razor,recallproc1,recall,1
IS_JOL D,8,1,3,BlockProc1,Equal - Rights,S,42,100,2772,StudyProc7,JOL,BlockProc1,Equal - ?,42,rights,recallproc1,recall,1
IS_JOL D,8,1,3,BlockProc1,Jar - Mason,S,43,80,3161,StudyProc7,JOL,BlockProc1,Jar - ?,43,mason,recallproc1,recall,1
IS_JOL D,8,1,3,BlockProc1,Wax - Candle,S,44,70,2411,StudyProc7,JOL,BlockProc1,Wax - ?,44,paper,recallproc1,recall,0
IS_JOL D,8,1,3,BlockProc1,Bracelet - Wrist,S,45,90,2506,StudyProc7,JOL,BlockProc1,Bracelet - ?,45,wrist,recallproc1,recall,1
IS_JOL D,8,1,3,BlockProc1,Carbon - Element,S,46,60,3205,StudyProc7,JOL,BlockProc1,Carbon - ?,46,date,recallproc1,recall,0
IS_JOL D,8,1,3,BlockProc1,Away - Gone,S,47,90,1991,StudyProc7,JOL,BlockProc1,Away - ?,47,towards,recallproc1,recall,0
IS_JOL D,8,1,3,BlockProc1,Drink - Water,S,48,100,2621,StudyProc7,JOL,BlockProc1,Drink - ?,48,water,recallproc1,recall,1
IS_JOL D,8,1,3,BlockProc1,Ground - Earth,S,49,60,2471,StudyProc7,JOL,BlockProc1,Ground - ?,49,,recallproc1,recall,0
IS_JOL D,8,1,3,BlockProc1,Lonely - Alone,S,50,100,3713,StudyProc7,JOL,BlockProc1,Lonely - ?,50,,recallproc1,recall,0
IS_JOL D,8,1,3,BlockProc1,Wet - Dry,S,51,100,2499,StudyProc7,JOL,BlockProc1,Wet - ?,51,dry,recallproc1,recall,1
IS_JOL D,8,1,3,BlockProc1,Seatbelt - Safety,S,52,90,2251,StudyProc7,JOL,BlockProc1,Seatbelt - ?,52,drive,recallproc1,recall,0
IS_JOL D,8,1,3,BlockProc1,Lie - Truth,S,53,90,2837,StudyProc7,JOL,BlockProc1,Lie - ?,53,,recallproc1,recall,0
IS_JOL D,8,1,3,BlockProc1,Communication - Phone,S,54,100,3421,StudyProc7,JOL,BlockProc1,Communication - ?,54,phome,recallproc1,recall,1
IS_JOL D,8,1,3,BlockProc1,Reel - Rod,S,55,60,2941,StudyProc7,JOL,BlockProc1,Reel - ?,55,,recallproc1,recall,0
IS_JOL D,8,1,3,BlockProc1,Tick - Flea,S,56,90,2043,StudyProc7,JOL,BlockProc1,Tick - ?,56,flea,recallproc1,recall,1
IS_JOL D,8,1,3,BlockProc1,Noise - Loud,S,57,90,3206,StudyProc7,JOL,BlockProc1,Noise - ?,57,loud,recallproc1,recall,1
IS_JOL D,8,1,3,BlockProc1,Have - Own,S,58,10,2929,StudyProc7,JOL,BlockProc1,Have - ?,58,had,recallproc1,recall,0
IS_JOL D,8,1,3,BlockProc1,Temper - Tantrum,S,59,100,2728,StudyProc7,JOL,BlockProc1,Temper - ?,59,tantrum,recallproc1,recall,1
IS_JOL D,8,1,3,BlockProc1,Tan - Sun,S,60,90,1963,StudyProc7,JOL,BlockProc1,Tan - ?,60,pale,recallproc1,recall,0
IS_JOL D,8,1,3,BlockProc1,Maroon - Justice,U,61,0,3914,StudyProc7,JOL,BlockProc1,Maroon - ?,61,red,recallproc1,recall,0
IS_JOL D,8,1,3,BlockProc1,Cloth - Stretch,U,62,0,3590,StudyProc7,JOL,BlockProc1,Cloth - ?,62,clean,recallproc1,recall,0
IS_JOL D,8,1,3,BlockProc1,Steak - Give,U,63,0,5065,StudyProc7,JOL,BlockProc1,Steak - ?,63,cut,recallproc1,recall,0
IS_JOL D,8,1,3,BlockProc1,Election - Maze,U,64,0,1972,StudyProc7,JOL,BlockProc1,Election - ?,64,,recallproc1,recall,0
IS_JOL D,8,1,3,BlockProc1,Charm - Vehicle,U,65,60,4409,StudyProc7,JOL,BlockProc1,Charm - ?,65,luck,recallproc1,recall,0
IS_JOL D,8,1,3,BlockProc1,Obtain - Meat,U,66,0,2478,StudyProc7,JOL,BlockProc1,Obtain - ?,66,take,recallproc1,recall,0
IS_JOL D,8,1,3,BlockProc1,Able - Crackle,U,67,10,6020,StudyProc7,JOL,BlockProc1,Able - ?,67,,recallproc1,recall,0
IS_JOL D,8,1,3,BlockProc1,Shake - Shell,U,68,10,3898,StudyProc7,JOL,BlockProc1,Shake - ?,68,,recallproc1,recall,0
IS_JOL D,8,1,3,BlockProc1,Fiction - Listen,U,69,10,2743,StudyProc7,JOL,BlockProc1,Fiction - ?,69,FALSE,recallproc1,recall,0
IS_JOL D,8,1,3,BlockProc1,Joke - Keys,U,70,0,3287,StudyProc7,JOL,BlockProc1,Joke - ?,70,,recallproc1,recall,0
IS_JOL D,8,1,3,BlockProc1,Clothes - Cake,U,71,60,2562,StudyProc7,JOL,BlockProc1,Clothes - ?,71,,recallproc1,recall,0
IS_JOL D,8,1,3,BlockProc1,Hate - Name,U,72,0,2377,StudyProc7,JOL,BlockProc1,Hate - ?,72,love,recallproc1,recall,0
IS_JOL D,8,1,3,BlockProc1,Bang - Fuzzy,U,73,0,4596,StudyProc7,JOL,BlockProc1,Bang - ?,73,,recallproc1,recall,0
IS_JOL D,8,1,3,BlockProc1,Clear - Moat,U,74,0,2492,StudyProc7,JOL,BlockProc1,Clear - ?,74,,recallproc1,recall,0
IS_JOL D,8,1,3,BlockProc1,Toil - Lease,U,75,70,2331,StudyProc7,JOL,BlockProc1,Toil - ?,75,tin,recallproc1,recall,0
IS_JOL D,8,1,3,BlockProc1,Sign - Loan,U,76,70,2856,StudyProc7,JOL,BlockProc1,Sign - ?,76,stop,recallproc1,recall,0
IS_JOL D,8,1,3,BlockProc1,Ounce - Both,U,77,0,2097,StudyProc7,JOL,BlockProc1,Ounce - ?,77,pound,recallproc1,recall,0
IS_JOL D,8,1,3,BlockProc1,Morning - Temperature,U,78,70,3026,StudyProc7,JOL,BlockProc1,Morning - ?,78,night,recallproc1,recall,0
IS_JOL D,8,1,3,BlockProc1,Children - Mirror,U,79,40,4336,StudyProc7,JOL,BlockProc1,Children - ?,79,,recallproc1,recall,0
IS_JOL D,8,1,3,BlockProc1,Scar - Main,U,80,0,3185,StudyProc7,JOL,BlockProc1,Scar - ?,80,,recallproc1,recall,0
IS_JOL D,8,2,3,BlockProc2,Bad - Delinquent,B,1,20,2885,StudyProc5,JOL,BlockProc2,Bad - ?,1,good,recallproc2,recall,0
IS_JOL D,8,2,3,BlockProc2,Stomach - Digestion,B,2,90,1934,StudyProc5,JOL,BlockProc2,Stomach - ?,2,,recallproc2,recall,0
IS_JOL D,8,2,3,BlockProc2,Money - Wage,B,3,10,1437,StudyProc5,JOL,BlockProc2,Money - ?,3,,recallproc2,recall,0
IS_JOL D,8,2,3,BlockProc2,Hammer - Chisel,B,4,30,3709,StudyProc5,JOL,BlockProc2,Hammer - ?,4,,recallproc2,recall,0
IS_JOL D,8,2,3,BlockProc2,News - Editor,B,5,90,2399,StudyProc5,JOL,BlockProc2,News - ?,5,,recallproc2,recall,0
IS_JOL D,8,2,3,BlockProc2,Sting - Hornet,B,6,30,1718,StudyProc5,JOL,BlockProc2,Sting - ?,6,wasp,recallproc2,recall,0
IS_JOL D,8,2,3,BlockProc2,Cold - Bitter,B,7,10,2405,StudyProc5,JOL,BlockProc2,Cold - ?,7,chill,recallproc2,recall,0
IS_JOL D,8,2,3,BlockProc2,Plant - Root,B,8,90,2765,StudyProc5,JOL,BlockProc2,Plant - ?,8,grow,recallproc2,recall,0
IS_JOL D,8,2,3,BlockProc2,Bird - Swan,B,9,50,3627,StudyProc5,JOL,BlockProc2,Bird - ?,9,fly,recallproc2,recall,0
IS_JOL D,8,2,3,BlockProc2,Dog - Paw,B,10,90,1517,StudyProc5,JOL,BlockProc2,Dog - ?,10,cat,recallproc2,recall,0
IS_JOL D,8,2,3,BlockProc2,Out - Way,B,11,40,2339,StudyProc5,JOL,BlockProc2,Out - ?,11,in,recallproc2,recall,0
IS_JOL D,8,2,3,BlockProc2,Clean - Hygiene,B,12,40,1794,StudyProc5,JOL,BlockProc2,Clean - ?,12,,recallproc2,recall,0
IS_JOL D,8,2,3,BlockProc2,Water - Bridge,B,13,90,2426,StudyProc5,JOL,BlockProc2,Water - ?,13,wet,recallproc2,recall,0
IS_JOL D,8,2,3,BlockProc2,Rock - Geology,B,14,80,1677,StudyProc5,JOL,BlockProc2,Rock - ?,14,geology,recallproc2,recall,1
IS_JOL D,8,2,3,BlockProc2,War - Revolution,B,15,10,2157,StudyProc5,JOL,BlockProc2,War - ?,15,revolution,recallproc2,recall,1
IS_JOL D,8,2,3,BlockProc2,Talk - Discussion,B,16,90,1954,StudyProc5,JOL,BlockProc2,Talk - ?,16,,recallproc2,recall,0
IS_JOL D,8,2,3,BlockProc2,Cow - Herd,B,17,40,1946,StudyProc5,JOL,BlockProc2,Cow - ?,17,,recallproc2,recall,0
IS_JOL D,8,2,3,BlockProc2,Card - Credit,B,18,60,4440,StudyProc5,JOL,BlockProc2,Card - ?,18,,recallproc2,recall,0
IS_JOL D,8,2,3,BlockProc2,Flower - Orchid,B,19,0,2237,StudyProc5,JOL,BlockProc2,Flower - ?,19,orchid,recallproc2,recall,1
IS_JOL D,8,2,3,BlockProc2,Fish - Tuna,B,20,90,1590,StudyProc5,JOL,BlockProc2,Fish - ?,20,sea,recallproc2,recall,0
IS_JOL D,8,2,3,BlockProc2,Enough - Full,F,21,40,1476,StudyProc5,JOL,BlockProc2,Enough - ?,21,little,recallproc2,recall,0
IS_JOL D,8,2,3,BlockProc2,Sip - Drink,F,22,40,3567,StudyProc5,JOL,BlockProc2,Sip - ?,22,,recallproc2,recall,0
IS_JOL D,8,2,3,BlockProc2,Cave - Dark,F,23,50,4014,StudyProc5,JOL,BlockProc2,Cave - ?,23,,recallproc2,recall,0
IS_JOL D,8,2,3,BlockProc2,Seize - Take,F,24,20,3603,StudyProc5,JOL,BlockProc2,Seize - ?,24,,recallproc2,recall,0
IS_JOL D,8,2,3,BlockProc2,Growth - Height,F,25,10,5717,StudyProc5,JOL,BlockProc2,Growth - ?,25,,recallproc2,recall,0
IS_JOL D,8,2,3,BlockProc2,Word - Sentence,F,26,50,1704,StudyProc5,JOL,BlockProc2,Word - ?,26,,recallproc2,recall,0
IS_JOL D,8,2,3,BlockProc2,Wasp - Bug,F,27,90,1750,StudyProc5,JOL,BlockProc2,Wasp - ?,27,sting,recallproc2,recall,0
IS_JOL D,8,2,3,BlockProc2,Division - Math,F,28,90,6040,StudyProc5,JOL,BlockProc2,Division - ?,28,,recallproc2,recall,0
IS_JOL D,8,2,3,BlockProc2,Attorney - Law,F,29,40,1626,StudyProc5,JOL,BlockProc2,Attorney - ?,29,law,recallproc2,recall,1
IS_JOL D,8,2,3,BlockProc2,Fantastic - Great,F,30,10,1763,StudyProc5,JOL,BlockProc2,Fantastic - ?,30,,recallproc2,recall,0
IS_JOL D,8,2,3,BlockProc2,Latch - Key,F,31,10,2538,StudyProc5,JOL,BlockProc2,Latch - ?,31,key,recallproc2,recall,1
IS_JOL D,8,2,3,BlockProc2,Chili - Hot,F,32,90,1895,StudyProc5,JOL,BlockProc2,Chili - ?,32,hot,recallproc2,recall,1
IS_JOL D,8,2,3,BlockProc2,Racket - Ball,F,33,10,2315,StudyProc5,JOL,BlockProc2,Racket - ?,33,ll,recallproc2,recall,0
IS_JOL D,8,2,3,BlockProc2,Chore - Work,F,34,10,1836,StudyProc5,JOL,BlockProc2,Chore - ?,34,work,recallproc2,recall,1
IS_JOL D,8,2,3,BlockProc2,Famine - Hunger,F,35,90,1548,StudyProc5,JOL,BlockProc2,Famine - ?,35,hinger,recallproc2,recall,1
IS_JOL D,8,2,3,BlockProc2,Drowsy - Sleep,F,36,40,1656,StudyProc5,JOL,BlockProc2,Drowsy - ?,36,tired,recallproc2,recall,0
IS_JOL D,8,2,3,BlockProc2,Stench - Smell,F,37,10,1343,StudyProc5,JOL,BlockProc2,Stench - ?,37,smell,recallproc2,recall,1
IS_JOL D,8,2,3,BlockProc2,Attire - Clothes,F,38,90,2844,StudyProc5,JOL,BlockProc2,Attire - ?,38,,recallproc2,recall,0
IS_JOL D,8,2,3,BlockProc2,Pilot - Plane,F,39,10,1943,StudyProc5,JOL,BlockProc2,Pilot - ?,39,plane,recallproc2,recall,1
IS_JOL D,8,2,3,BlockProc2,Blaze - Fire,F,40,90,1470,StudyProc5,JOL,BlockProc2,Blaze - ?,40,fire,recallproc2,recall,1
IS_JOL D,8,2,3,BlockProc2,Assignment - Due,S,41,50,1842,StudyProc8,JOL,BlockProc2,Assignment - ?,41,,recallproc2,recall,0
IS_JOL D,8,2,3,BlockProc2,Amount - Number,S,42,90,2921,StudyProc8,JOL,BlockProc2,Amount - ?,42,number,recallproc2,recall,1
IS_JOL D,8,2,3,BlockProc2,Site - Location,S,43,50,5470,StudyProc8,JOL,BlockProc2,Site - ?,43,location,recallproc2,recall,1
IS_JOL D,8,2,3,BlockProc2,Waste - Dump,S,44,90,2227,StudyProc8,JOL,BlockProc2,Waste - ?,44,stench,recallproc2,recall,0
IS_JOL D,8,2,3,BlockProc2,Jury - Trial,S,45,70,2570,StudyProc8,JOL,BlockProc2,Jury - ?,45,trial,recallproc2,recall,1
IS_JOL D,8,2,3,BlockProc2,Design - Architecture,S,46,30,3349,StudyProc8,JOL,BlockProc2,Design - ?,46,,recallproc2,recall,0
IS_JOL D,8,2,3,BlockProc2,Bar - Grill,S,47,10,1821,StudyProc8,JOL,BlockProc2,Bar - ?,47,,recallproc2,recall,0
IS_JOL D,8,2,3,BlockProc2,Liver - Kidney,S,48,90,1591,StudyProc8,JOL,BlockProc2,Liver - ?,48,kidney,recallproc2,recall,1
IS_JOL D,8,2,3,BlockProc2,End - Begin,S,49,80,2300,StudyProc8,JOL,BlockProc2,End - ?,49,begin,recallproc2,recall,1
IS_JOL D,8,2,3,BlockProc2,Wind - Blow,S,50,70,2209,StudyProc8,JOL,BlockProc2,Wind - ?,50,blow,recallproc2,recall,1
IS_JOL D,8,2,3,BlockProc2,Soda - Pop,S,51,20,3001,StudyProc8,JOL,BlockProc2,Soda - ?,51,pop,recallproc2,recall,1
IS_JOL D,8,2,3,BlockProc2,Cheese - Wine,S,52,90,2334,StudyProc8,JOL,BlockProc2,Cheese - ?,52,wine,recallproc2,recall,1
IS_JOL D,8,2,3,BlockProc2,Toilet - Bathroom,S,53,90,1706,StudyProc8,JOL,BlockProc2,Toilet - ?,53,paper,recallproc2,recall,0
IS_JOL D,8,2,3,BlockProc2,Salad - Lettuce,S,54,90,1627,StudyProc8,JOL,BlockProc2,Salad - ?,54,romaine,recallproc2,recall,0
IS_JOL D,8,2,3,BlockProc2,Foot - Shoe,S,55,50,2049,StudyProc8,JOL,BlockProc2,Foot - ?,55,shoe,recallproc2,recall,1
IS_JOL D,8,2,3,BlockProc2,Future - Past,S,56,50,3583,StudyProc8,JOL,BlockProc2,Future - ?,56,,recallproc2,recall,0
IS_JOL D,8,2,3,BlockProc2,Decision - Choise,S,57,0,3264,StudyProc8,JOL,BlockProc2,Decision - ?,57,make,recallproc2,recall,0
IS_JOL D,8,2,3,BlockProc2,Bee - Honey,S,58,90,1483,StudyProc8,JOL,BlockProc2,Bee - ?,58,sting,recallproc2,recall,0
IS_JOL D,8,2,3,BlockProc2,Child - Baby,S,59,10,7088,StudyProc8,JOL,BlockProc2,Child - ?,59,,recallproc2,recall,0
IS_JOL D,8,2,3,BlockProc2,Round - Circle,S,60,90,4822,StudyProc8,JOL,BlockProc2,Round - ?,60,circle,recallproc2,recall,1
IS_JOL D,8,2,3,BlockProc2,Clutter - Pusher,U,61,0,3274,StudyProc8,JOL,BlockProc2,Clutter - ?,61,mess,recallproc2,recall,0
IS_JOL D,8,2,3,BlockProc2,Sacking -Dietary,U,62,0,4405,StudyProc8,JOL,BlockProc2,Sacking - ?,62,cut,recallproc2,recall,0
IS_JOL D,8,2,3,BlockProc2,Hungry - Park,U,63,0,2339,StudyProc8,JOL,BlockProc2,Hungry - ?,63,,recallproc2,recall,0
IS_JOL D,8,2,3,BlockProc2,Woman - Lift,U,64,90,2434,StudyProc8,JOL,BlockProc2,Woman - ?,64,,recallproc2,recall,0
IS_JOL D,8,2,3,BlockProc2,Belt - Soon,U,65,20,6198,StudyProc8,JOL,BlockProc2,Belt - ?,65,,recallproc2,recall,0
IS_JOL D,8,2,3,BlockProc2,Floor - Discover,U,66,10,2964,StudyProc8,JOL,BlockProc2,Floor - ?,66,,recallproc2,recall,0
IS_JOL D,8,2,3,BlockProc2,Business - Death,U,67,0,1744,StudyProc8,JOL,BlockProc2,Business - ?,67,market,recallproc2,recall,0
IS_JOL D,8,2,3,BlockProc2,Sight - Debate,U,68,20,5201,StudyProc8,JOL,BlockProc2,Sight - ?,68,see,recallproc2,recall,0
IS_JOL D,8,2,3,BlockProc2,Bronze - Artery,U,69,0,3503,StudyProc8,JOL,BlockProc2,Bronze - ?,69,artery,recallproc2,recall,1
IS_JOL D,8,2,3,BlockProc2,Hand - Fix,U,70,40,2801,StudyProc8,JOL,BlockProc2,Hand - ?,70,foot,recallproc2,recall,0
IS_JOL D,8,2,3,BlockProc2,Position - Machine,U,71,0,6200,StudyProc8,JOL,BlockProc2,Position - ?,71,,recallproc2,recall,0
IS_JOL D,8,2,3,BlockProc2,Car - Happy,U,72,10,1769,StudyProc8,JOL,BlockProc2,Car - ?,72,,recallproc2,recall,0
IS_JOL D,8,2,3,BlockProc2,Tuck - Allow,U,73,0,1616,StudyProc8,JOL,BlockProc2,Tuck - ?,73,roll,recallproc2,recall,0
IS_JOL D,8,2,3,BlockProc2,Lion - Art,U,74,10,1643,StudyProc8,JOL,BlockProc2,Lion - ?,74,,recallproc2,recall,0
IS_JOL D,8,2,3,BlockProc2,Accident - Strong,U,75,50,2621,StudyProc8,JOL,BlockProc2,Accident - ?,75,car,recallproc2,recall,0
IS_JOL D,8,2,3,BlockProc2,Riddle - Sugar,U,76,40,3398,StudyProc8,JOL,BlockProc2,Riddle - ?,76,joke,recallproc2,recall,0
IS_JOL D,8,2,3,BlockProc2,Add - Valley,U,77,0,9403,StudyProc8,JOL,BlockProc2,Add - ?,77,subtract,recallproc2,recall,0
IS_JOL D,8,2,3,BlockProc2,Would - Cash,U,78,30,6002,StudyProc8,JOL,BlockProc2,Would - ?,78,could,recallproc2,recall,0
IS_JOL D,8,2,3,BlockProc2,Sick - Hide,U,79,30,3621,StudyProc8,JOL,BlockProc2,Sick - ?,79,,recallproc2,recall,0
IS_JOL D,8,2,3,BlockProc2,Vase - King,U,80,0,1971,StudyProc8,JOL,BlockProc2,Vase - ?,80,vine,recallproc2,recall,0
RL_JOL A,9,1,3,BlockProc1,Delinquent - Bad,F,1,80,2112,StudyProc7,JOL,BlockProc1,Delinquent - ?,1,smart,recallproc1,recall,0
RL_JOL A,9,1,3,BlockProc1,Digestion - Stomach,F,2,70,8563,StudyProc7,JOL,BlockProc1,Digestion - ?,2,food,recallproc1,recall,0
RL_JOL A,9,1,3,BlockProc1,Wage - Money,F,3,60,2031,StudyProc7,JOL,BlockProc1,Wage - ?,3,tip,recallproc1,recall,0
RL_JOL A,9,1,3,BlockProc1,Chisel - Hammer,F,4,70,2137,StudyProc7,JOL,BlockProc1,Chisel - ?,4,hammer,recallproc1,recall,1
RL_JOL A,9,1,3,BlockProc1,Editor - News,F,5,80,2241,StudyProc7,JOL,BlockProc1,Editor - ?,5,paper,recallproc1,recall,0
RL_JOL A,9,1,3,BlockProc1,Hornet - Sting,F,6,65,6655,StudyProc7,JOL,BlockProc1,Hornet - ?,6,sting,recallproc1,recall,1
RL_JOL A,9,1,3,BlockProc1,Bitter - Cold,F,7,95,3520,StudyProc7,JOL,BlockProc1,Bitter - ?,7,sour,recallproc1,recall,0
RL_JOL A,9,1,3,BlockProc1,Root - Plant,F,8,60,3354,StudyProc7,JOL,BlockProc1,Root - ?,8,tree,recallproc1,recall,0
RL_JOL A,9,1,3,BlockProc1,Swan - Bird,F,9,80,1548,StudyProc7,JOL,BlockProc1,Swan - ?,9,dove,recallproc1,recall,0
RL_JOL A,9,1,3,BlockProc1,Paw - Dog,F,10,100,4089,StudyProc7,JOL,BlockProc1,Paw - ?,10,dog,recallproc1,recall,1
RL_JOL A,9,1,3,BlockProc1,Way - Out,F,11,65,2716,StudyProc7,JOL,BlockProc1,Way - ?,11,out,recallproc1,recall,1
RL_JOL A,9,1,3,BlockProc1,Hygiene - Clean,F,12,100,2056,StudyProc7,JOL,BlockProc1,Hygiene - ?,12,clean,recallproc1,recall,1
RL_JOL A,9,1,3,BlockProc1,Bridge - Water,F,13,50,2548,StudyProc7,JOL,BlockProc1,Bridge - ?,13,water,recallproc1,recall,1
RL_JOL A,9,1,3,BlockProc1,Geology - Rock,F,14,50,3172,StudyProc7,JOL,BlockProc1,Geology - ?,14,rock,recallproc1,recall,1
RL_JOL A,9,1,3,BlockProc1,Revolution - War,F,15,95,3212,StudyProc7,JOL,BlockProc1,Revolution - ?,15,war,recallproc1,recall,1
RL_JOL A,9,1,3,BlockProc1,Discussion - Talk,F,16,90,3240,StudyProc7,JOL,BlockProc1,Discussion - ?,16,question,recallproc1,recall,0
RL_JOL A,9,1,3,BlockProc1,Herd - Cow,F,17,90,1603,StudyProc7,JOL,BlockProc1,Herd - ?,17,cow,recallproc1,recall,1
RL_JOL A,9,1,3,BlockProc1,Credit - Card,F,18,100,3392,StudyProc7,JOL,BlockProc1,Credit - ?,18,card,recallproc1,recall,1
RL_JOL A,9,1,3,BlockProc1,Orchid - Flower,F,19,75,3275,StudyProc7,JOL,BlockProc1,Orchid - ?,19,flower,recallproc1,recall,1
RL_JOL A,9,1,3,BlockProc1,Tuna - Fish,F,20,100,2454,StudyProc7,JOL,BlockProc1,Tuna - ?,20,fish,recallproc1,recall,1
RL_JOL A,9,1,3,BlockProc1,Full - Enough,B,21,80,3071,StudyProc7,JOL,BlockProc1,Full - ?,21,,recallproc1,recall,0
RL_JOL A,9,1,3,BlockProc1,Drink - Sip,B,22,100,2725,StudyProc7,JOL,BlockProc1,Drink - ?,22,eat,recallproc1,recall,0
RL_JOL A,9,1,3,BlockProc1,Dark - Cave,B,23,100,2108,StudyProc7,JOL,BlockProc1,Dark - ?,23,light,recallproc1,recall,0
RL_JOL A,9,1,3,BlockProc1,Take - Seize,B,24,70,4443,StudyProc7,JOL,BlockProc1,Take - ?,24,off,recallproc1,recall,0
RL_JOL A,9,1,3,BlockProc1,Height - Growth,B,25,100,2432,StudyProc7,JOL,BlockProc1,Height - ?,25,weight,recallproc1,recall,0
RL_JOL A,9,1,3,BlockProc1,Sentence - Word,B,26,95,2898,StudyProc7,JOL,BlockProc1,Sentence - ?,26,end,recallproc1,recall,0
RL_JOL A,9,1,3,BlockProc1,Bug - Wasp,B,27,90,4588,StudyProc7,JOL,BlockProc1,Bug - ?,27,wasp,recallproc1,recall,1
RL_JOL A,9,1,3,BlockProc1,Math - Division,B,28,100,3539,StudyProc7,JOL,BlockProc1,Math - ?,28,division,recallproc1,recall,1
RL_JOL A,9,1,3,BlockProc1,Law - Attorney,B,29,80,2452,StudyProc7,JOL,BlockProc1,Law - ?,29,effect,recallproc1,recall,0
RL_JOL A,9,1,3,BlockProc1,Great - Fantastic,B,30,90,2144,StudyProc7,JOL,BlockProc1,Great - ?,30,bad,recallproc1,recall,0
RL_JOL A,9,1,3,BlockProc1,Key - Latch,B,31,60,6334,StudyProc7,JOL,BlockProc1,Key - ?,31,match,recallproc1,recall,0
RL_JOL A,9,1,3,BlockProc1,Hot - Chili,B,32,100,2367,StudyProc7,JOL,BlockProc1,Hot - ?,32,chili,recallproc1,recall,1
RL_JOL A,9,1,3,BlockProc1,Ball - Racket,B,33,60,4395,StudyProc7,JOL,BlockProc1,Ball - ?,33,sport,recallproc1,recall,0
RL_JOL A,9,1,3,BlockProc1,Work - Chore,B,34,78,3583,StudyProc7,JOL,BlockProc1,Work - ?,34,job,recallproc1,recall,0
RL_JOL A,9,1,3,BlockProc1,Hunger - Famine,B,35,80,3273,StudyProc7,JOL,BlockProc1,Hunger - ?,35,famine,recallproc1,recall,1
RL_JOL A,9,1,3,BlockProc1,Sleep - Drowsy,B,36,70,2720,StudyProc7,JOL,BlockProc1,Sleep - ?,36,deprived,recallproc1,recall,0
RL_JOL A,9,1,3,BlockProc1,Smell - Stench,B,37,90,2652,StudyProc7,JOL,BlockProc1,Smell - ?,37,stinch,recallproc1,recall,1
RL_JOL A,9,1,3,BlockProc1,Clothes - Attire,B,38,90,1907,StudyProc7,JOL,BlockProc1,Clothes - ?,38,fashion,recallproc1,recall,0
RL_JOL A,9,1,3,BlockProc1,Plane - Pilot,B,39,95,2744,StudyProc7,JOL,BlockProc1,Plane - ?,39,,recallproc1,recall,0
RL_JOL A,9,1,3,BlockProc1,Fire - Blaze,B,40,90,4931,StudyProc7,JOL,BlockProc1,Fire - ?,40,,recallproc1,recall,0
RL_JOL A,9,1,3,BlockProc1,Due - Assignment,S,41,95,3329,StudyProc3,JOL,BlockProc1,Due - ?,41,assignment,recallproc1,recall,1
RL_JOL A,9,1,3,BlockProc1,Number - Amount,S,42,65,2448,StudyProc3,JOL,BlockProc1,Number - ?,42,,recallproc1,recall,0
RL_JOL A,9,1,3,BlockProc1,Location - Site,S,43,20,4346,StudyProc3,JOL,BlockProc1,Location - ?,43,park,recallproc1,recall,0
RL_JOL A,9,1,3,BlockProc1,Dump - Waste,S,44,75,2519,StudyProc3,JOL,BlockProc1,Dump - ?,44,waste,recallproc1,recall,1
RL_JOL A,9,1,3,BlockProc1,Trial - Jury,S,45,70,3482,StudyProc3,JOL,BlockProc1,Trial - ?,45,error,recallproc1,recall,0
RL_JOL A,9,1,3,BlockProc1,Architecture - Design,S,46,40,2603,StudyProc3,JOL,BlockProc1,Architecture - ?,46,build,recallproc1,recall,0
RL_JOL A,9,1,3,BlockProc1,Grill - Bar,S,47,67,2329,StudyProc3,JOL,BlockProc1,Grill - ?,47,out,recallproc1,recall,0
RL_JOL A,9,1,3,BlockProc1,Kidney - Liver,S,48,70,3102,StudyProc3,JOL,BlockProc1,Kidney - ?,48,liver,recallproc1,recall,1
RL_JOL A,9,1,3,BlockProc1,Begin - End,S,49,100,2839,StudyProc3,JOL,BlockProc1,Begin - ?,49,end,recallproc1,recall,1
RL_JOL A,9,1,3,BlockProc1,Blow - Wind,S,50,65,2987,StudyProc3,JOL,BlockProc1,Blow - ?,50,,recallproc1,recall,0
RL_JOL A,9,1,3,BlockProc1,Pop - Soda,S,51,100,2263,StudyProc3,JOL,BlockProc1,Pop - ?,51,soda,recallproc1,recall,1
RL_JOL A,9,1,3,BlockProc1,Wine - Cheese,S,52,70,8525,StudyProc3,JOL,BlockProc1,Wine - ?,52,alcohol,recallproc1,recall,0
RL_JOL A,9,1,3,BlockProc1,Bathroom - Toilet,S,53,100,2740,StudyProc3,JOL,BlockProc1,Bathroom - ?,53,toilet,recallproc1,recall,1
RL_JOL A,9,1,3,BlockProc1,Lettuce - Salad,S,54,95,4315,StudyProc3,JOL,BlockProc1,Lettuce - ?,54,salad,recallproc1,recall,1
RL_JOL A,9,1,3,BlockProc1,Shoe - Foot,S,55,75,3570,StudyProc3,JOL,BlockProc1,Shoe - ?,55,lift,recallproc1,recall,0
RL_JOL A,9,1,3,BlockProc1,Past - Future,S,56,100,2542,StudyProc3,JOL,BlockProc1,Past - ?,56,future,recallproc1,recall,1
RL_JOL A,9,1,3,BlockProc1,Choice - Decision,S,57,40,3171,StudyProc3,JOL,BlockProc1,Choice - ?,57,,recallproc1,recall,0
RL_JOL A,9,1,3,BlockProc1,Honey - Bee,S,58,100,3405,StudyProc3,JOL,BlockProc1,Honey - ?,58,bee,recallproc1,recall,1
RL_JOL A,9,1,3,BlockProc1,Baby - Child,S,59,100,2082,StudyProc3,JOL,BlockProc1,Baby - ?,59,child,recallproc1,recall,1
RL_JOL A,9,1,3,BlockProc1,Circle - Round,S,60,90,2898,StudyProc3,JOL,BlockProc1,Circle - ?,60,round,recallproc1,recall,1
RL_JOL A,9,1,3,BlockProc1,Pusher - Clutter,U,61,0,2263,StudyProc3,JOL,BlockProc1,Pusher - ?,61,pushed,recallproc1,recall,0
RL_JOL A,9,1,3,BlockProc1,Dietary - Slacking,U,62,76,3911,StudyProc3,JOL,BlockProc1,Dietary - ?,62,hungry,recallproc1,recall,0
RL_JOL A,9,1,3,BlockProc1,Park - Hungry,U,63,20,3376,StudyProc3,JOL,BlockProc1,Park - ?,63,bench,recallproc1,recall,0
RL_JOL A,9,1,3,BlockProc1,Lift - Woman,U,64,25,4370,StudyProc3,JOL,BlockProc1,Lift - ?,64,up,recallproc1,recall,0
RL_JOL A,9,1,3,BlockProc1,Soon - Belt,U,65,0,2456,StudyProc3,JOL,BlockProc1,Soon - ?,65,later,recallproc1,recall,0
RL_JOL A,9,1,3,BlockProc1,Discover - Floor,U,66,0,1769,StudyProc3,JOL,BlockProc1,Discover - ?,66,identity,recallproc1,recall,0
RL_JOL A,9,1,3,BlockProc1,Death - Business,U,67,20,3923,StudyProc3,JOL,BlockProc1,Death - ?,67,toll,recallproc1,recall,0
RL_JOL A,9,1,3,BlockProc1,Debate - Sight,U,68,0,1295,StudyProc3,JOL,BlockProc1,Debate - ?,68,argue,recallproc1,recall,0
RL_JOL A,9,1,3,BlockProc1,Artery - Bronze,U,69,0,2178,StudyProc3,JOL,BlockProc1,Artery - ?,69,vein,recallproc1,recall,0
RL_JOL A,9,1,3,BlockProc1,Fix - Hand,U,70,0,4032,StudyProc3,JOL,BlockProc1,Fix - ?,70,,recallproc1,recall,0
RL_JOL A,9,1,3,BlockProc1,Machine - Position,U,71,15,4133,StudyProc3,JOL,BlockProc1,Machine - ?,71,error,recallproc1,recall,0
RL_JOL A,9,1,3,BlockProc1,Happy - Car,U,72,0,1814,StudyProc3,JOL,BlockProc1,Happy - ?,72,sad,recallproc1,recall,0
RL_JOL A,9,1,3,BlockProc1,Allow - Tuck,U,73,0,2175,StudyProc3,JOL,BlockProc1,Allow - ?,73,let,recallproc1,recall,0
RL_JOL A,9,1,3,BlockProc1,Art - Lion,U,74,0,1841,StudyProc3,JOL,BlockProc1,Art - ?,74,paint,recallproc1,recall,0
RL_JOL A,9,1,3,BlockProc1,Strong - Accident,U,75,0,3862,StudyProc3,JOL,BlockProc1,Strong - ?,75,weak,recallproc1,recall,0
RL_JOL A,9,1,3,BlockProc1,Sugar - Riddle,U,76,0,1572,StudyProc3,JOL,BlockProc1,Sugar - ?,76,sweet,recallproc1,recall,0
RL_JOL A,9,1,3,BlockProc1,Valley - Add,U,77,0,1847,StudyProc3,JOL,BlockProc1,Valley - ?,77,hill,recallproc1,recall,0
RL_JOL A,9,1,3,BlockProc1,Cash - Would,U,78,0,2284,StudyProc3,JOL,BlockProc1,Cash - ?,78,card,recallproc1,recall,0
RL_JOL A,9,1,3,BlockProc1,Hide - Sick,U,79,0,2141,StudyProc3,JOL,BlockProc1,Hide - ?,79,find,recallproc1,recall,0
RL_JOL A,9,1,3,BlockProc1,King - Vase,U,80,0,4852,StudyProc3,JOL,BlockProc1,King - ?,80,queen,recallproc1,recall,0
RL_JOL A,9,2,3,BlockProc2,Extension - Long,F,1,90,1769,StudyProc5,JOL,BlockProc2,Extension - ?,1,long,recallproc2,recall,1
RL_JOL A,9,2,3,BlockProc2,Clue - Game,F,2,60,4431,StudyProc5,JOL,BlockProc2,Clue - ?,2,,recallproc2,recall,0
RL_JOL A,9,2,3,BlockProc2,Cactus - Plant,F,3,65,2440,StudyProc5,JOL,BlockProc2,Cactus - ?,3,plant,recallproc2,recall,1
RL_JOL A,9,2,3,BlockProc2,Shoelace - Tie,F,4,90,2632,StudyProc5,JOL,BlockProc2,Shoelace - ?,4,shoe,recallproc2,recall,0
RL_JOL A,9,2,3,BlockProc2,Detective - Mystery,F,5,70,2141,StudyProc5,JOL,BlockProc2,Detective - ?,5,police,recallproc2,recall,0
RL_JOL A,9,2,3,BlockProc2,Adjourn - End,F,6,0,6274,StudyProc5,JOL,BlockProc2,Adjourn - ?,6,adjust,recallproc2,recall,0
RL_JOL A,9,2,3,BlockProc2,Furry - Dog,F,7,60,2212,StudyProc5,JOL,BlockProc2,Furry - ?,7,dog,recallproc2,recall,1
RL_JOL A,9,2,3,BlockProc2,Litter - Trash,F,8,70,1987,StudyProc5,JOL,BlockProc2,Litter - ?,8,dog,recallproc2,recall,0
RL_JOL A,9,2,3,BlockProc2,Cherry - Red,F,9,100,1930,StudyProc5,JOL,BlockProc2,Cherry - ?,9,red,recallproc2,recall,1
RL_JOL A,9,2,3,BlockProc2,Scalp - Head,F,10,80,2032,StudyProc5,JOL,BlockProc2,Scalp - ?,10,head,recallproc2,recall,1
RL_JOL A,9,2,3,BlockProc2,Driver - Car,F,11,100,2625,StudyProc5,JOL,BlockProc2,Driver - ?,11,,recallproc2,recall,0
RL_JOL A,9,2,3,BlockProc2,Chop - Cut,F,12,65,2096,StudyProc5,JOL,BlockProc2,Chop - ?,12,cut,recallproc2,recall,1
RL_JOL A,9,2,3,BlockProc2,Mule - Donkey,F,13,70,1964,StudyProc5,JOL,BlockProc2,Mule - ?,13,donkey,recallproc2,recall,1
RL_JOL A,9,2,3,BlockProc2,Document - Paper,F,14,70,1653,StudyProc5,JOL,BlockProc2,Document - ?,14,type,recallproc2,recall,0
RL_JOL A,9,2,3,BlockProc2,Incense - Smell,F,15,70,2171,StudyProc5,JOL,BlockProc2,Incense - ?,15,smell,recallproc2,recall,1
RL_JOL A,9,2,3,BlockProc2,Dine - Eat,F,16,60,1910,StudyProc5,JOL,BlockProc2,Dine - ?,16,dinner,recallproc2,recall,0
RL_JOL A,9,2,3,BlockProc2,Shears - Scissors,F,17,70,1953,StudyProc5,JOL,BlockProc2,Shears - ?,17,scissors,recallproc2,recall,1
RL_JOL A,9,2,3,BlockProc2,Feud - Fight,F,18,0,2351,StudyProc5,JOL,BlockProc2,Feud - ?,18,freud,recallproc2,recall,0
RL_JOL A,9,2,3,BlockProc2,Chill - Cold,F,19,90,2195,StudyProc5,JOL,BlockProc2,Chill - ?,19,cold,recallproc2,recall,1
RL_JOL A,9,2,3,BlockProc2,Affection - Love,F,20,60,6799,StudyProc5,JOL,BlockProc2,Affection - ?,20,love,recallproc2,recall,1
RL_JOL A,9,2,3,BlockProc2,Turn - Flip,B,21,80,2815,StudyProc5,JOL,BlockProc2,Turn - ?,21,sharp,recallproc2,recall,0
RL_JOL A,9,2,3,BlockProc2,Car - Windshield,B,22,95,2977,StudyProc5,JOL,BlockProc2,Car - ?,22,drive,recallproc2,recall,0
RL_JOL A,9,2,3,BlockProc2,Bad - Villain,B,23,80,1857,StudyProc5,JOL,BlockProc2,Bad - ?,23,good,recallproc2,recall,0
RL_JOL A,9,2,3,BlockProc2,Bird - Penguin,B,24,80,2019,StudyProc5,JOL,BlockProc2,Bird - ?,24,penguin,recallproc2,recall,1
RL_JOL A,9,2,3,BlockProc2,Star - Actress,B,25,70,3581,StudyProc5,JOL,BlockProc2,Star - ?,25,student,recallproc2,recall,0
RL_JOL A,9,2,3,BlockProc2,Thread - Thimble,B,26,0,2822,StudyProc5,JOL,BlockProc2,Thread - ?,26,,recallproc2,recall,0
RL_JOL A,9,2,3,BlockProc2,Even - Revenge,B,27,60,1688,StudyProc5,JOL,BlockProc2,Even - ?,27,if,recallproc2,recall,0
RL_JOL A,9,2,3,BlockProc2,Pop - Balloon,B,28,95,2638,StudyProc5,JOL,BlockProc2,Pop - ?,28,tart,recallproc2,recall,0
RL_JOL A,9,2,3,BlockProc2,Fruit - Strawberry,B,29,70,2482,StudyProc5,JOL,BlockProc2,Fruit - ?,29,strawberry,recallproc2,recall,1
RL_JOL A,9,2,3,BlockProc2,Best - Favorite,B,30,80,2647,StudyProc5,JOL,BlockProc2,Best - ?,30,man,recallproc2,recall,0
RL_JOL A,9,2,3,BlockProc2,Cat - Panther,B,31,60,2657,StudyProc5,JOL,BlockProc2,Cat - ?,31,dog,recallproc2,recall,0
RL_JOL A,9,2,3,BlockProc2,Glass - Breakable,B,32,70,1953,StudyProc5,JOL,BlockProc2,Glass - ?,32,pane,recallproc2,recall,0
RL_JOL A,9,2,3,BlockProc2,Dead - Coffin,B,33,50,2103,StudyProc5,JOL,BlockProc2,Dead - ?,33,coffin,recallproc2,recall,1
RL_JOL A,9,2,3,BlockProc2,Plane - Aircraft,B,34,60,4169,StudyProc5,JOL,BlockProc2,Plane - ?,34,pilot,recallproc2,recall,0
RL_JOL A,9,2,3,BlockProc2,Fish - Sardine,B,35,60,4273,StudyProc5,JOL,BlockProc2,Fish - ?,35,water,recallproc2,recall,0
RL_JOL A,9,2,3,BlockProc2,Baseball - League,B,36,100,2038,StudyProc5,JOL,BlockProc2,Baseball - ?,36,league,recallproc2,recall,1
RL_JOL A,9,2,3,BlockProc2,Money - Banker,B,37,100,1851,StudyProc5,JOL,BlockProc2,Money - ?,37,broke,recallproc2,recall,0
RL_JOL A,9,2,3,BlockProc2,Honest - Truthful,B,38,95,3248,StudyProc5,JOL,BlockProc2,Honest - ?,38,truth,recallproc2,recall,0
RL_JOL A,9,2,3,BlockProc2,Sleep - Nap,B,39,100,2411,StudyProc5,JOL,BlockProc2,Sleep - ?,39,deprived,recallproc2,recall,0
RL_JOL A,9,2,3,BlockProc2,Fight - Brawl,B,40,70,2409,StudyProc5,JOL,BlockProc2,Fight - ?,40,song,recallproc2,recall,0
RL_JOL A,9,2,3,BlockProc2,Razor - Shave,S,41,98,2409,StudyProc8,JOL,BlockProc2,Razor - ?,41,shave,recallproc2,recall,1
RL_JOL A,9,2,3,BlockProc2,Rights - Equal,S,42,80,4079,StudyProc8,JOL,BlockProc2,Rights - ?,42,law,recallproc2,recall,0
RL_JOL A,9,2,3,BlockProc2,Mason - Jar,S,43,95,2801,StudyProc8,JOL,BlockProc2,Mason - ?,43,jar,recallproc2,recall,1
RL_JOL A,9,2,3,BlockProc2,Candle - Wax,S,44,69,3629,StudyProc8,JOL,BlockProc2,Candle - ?,44,wax,recallproc2,recall,1
RL_JOL A,9,2,3,BlockProc2,Wrist - Bracelet,S,45,95,3836,StudyProc8,JOL,BlockProc2,Wrist - ?,45,bracelet,recallproc2,recall,1
RL_JOL A,9,2,3,BlockProc2,Element - Carbon,S,46,100,2678,StudyProc8,JOL,BlockProc2,Element - ?,46,carbon,recallproc2,recall,1
RL_JOL A,9,2,3,BlockProc2,Gone - Away,S,47,50,2335,StudyProc8,JOL,BlockProc2,Gone - ?,47,away,recallproc2,recall,1
RL_JOL A,9,2,3,BlockProc2,Water - Drink,S,48,95,4854,StudyProc8,JOL,BlockProc2,Water - ?,48,wet,recallproc2,recall,0
RL_JOL A,9,2,3,BlockProc2,Earth - Ground,S,49,35,2942,StudyProc8,JOL,BlockProc2,Earth - ?,49,flat,recallproc2,recall,0
RL_JOL A,9,2,3,BlockProc2,Alone - Lonely,S,50,95,3780,StudyProc8,JOL,BlockProc2,Alone - ?,50,together,recallproc2,recall,0
RL_JOL A,9,2,3,BlockProc2,Dry - Wet,S,51,100,1849,StudyProc8,JOL,BlockProc2,Dry - ?,51,wet,recallproc2,recall,1
RL_JOL A,9,2,3,BlockProc2,Safety - Seatbelt,S,52,85,4220,StudyProc8,JOL,BlockProc2,Safety - ?,52,seatbelt,recallproc2,recall,1
RL_JOL A,9,2,3,BlockProc2,Truth - Lie,S,53,100,2733,StudyProc8,JOL,BlockProc2,Truth - ?,53,lie,recallproc2,recall,1
RL_JOL A,9,2,3,BlockProc2,Phone - Communicatio,S,54,95,4464,StudyProc8,JOL,BlockProc2,Phone - ?,54,number,recallproc2,recall,0
RL_JOL A,9,2,3,BlockProc2,Rod - Reel,S,55,100,2494,StudyProc8,JOL,BlockProc2,Rod - ?,55,reel,recallproc2,recall,1
RL_JOL A,9,2,3,BlockProc2,Flea - Tick,S,56,95,4541,StudyProc8,JOL,BlockProc2,Flea - ?,56,tick,recallproc2,recall,1
RL_JOL A,9,2,3,BlockProc2,Loud - Noise,S,57,75,2911,StudyProc8,JOL,BlockProc2,Loud - ?,57,noise,recallproc2,recall,1
RL_JOL A,9,2,3,BlockProc2,Own - Have,S,58,70,2370,StudyProc8,JOL,BlockProc2,Own - ?,58,have,recallproc2,recall,1
RL_JOL A,9,2,3,BlockProc2,Tantrum - Temper,S,59,78,2687,StudyProc8,JOL,BlockProc2,Tantrum - ?,59,throe,recallproc2,recall,0
RL_JOL A,9,2,3,BlockProc2,Sun - Tan,S,60,100,1974,StudyProc8,JOL,BlockProc2,Sun - ?,60,tan,recallproc2,recall,1
RL_JOL A,9,2,3,BlockProc2,Justice - Maroon,U,61,0,1593,StudyProc8,JOL,BlockProc2,Justice - ?,61,crime,recallproc2,recall,0
RL_JOL A,9,2,3,BlockProc2,Stretch - Cloth,U,62,15,3802,StudyProc8,JOL,BlockProc2,Stretch - ?,62,s,recallproc2,recall,0
RL_JOL A,9,2,3,BlockProc2,Give - Steak,U,63,0,2208,StudyProc8,JOL,BlockProc2,Give - ?,63,up,recallproc2,recall,0
RL_JOL A,9,2,3,BlockProc2,Maze - Election,U,64,0,1668,StudyProc8,JOL,BlockProc2,Maze - ?,64,,recallproc2,recall,0
RL_JOL A,9,2,3,BlockProc2,Vehicle - Charm,U,65,0,1597,StudyProc8,JOL,BlockProc2,Vehicle - ?,65,broke,recallproc2,recall,0
RL_JOL A,9,2,3,BlockProc2,Meat - Obtain,U,66,0,1479,StudyProc8,JOL,BlockProc2,Meat - ?,66,eat,recallproc2,recall,0
RL_JOL A,9,2,3,BlockProc2,Crackle - Able,U,67,25,4017,StudyProc8,JOL,BlockProc2,Crackle - ?,67,,recallproc2,recall,0
RL_JOL A,9,2,3,BlockProc2,Shell - Shake,U,68,20,4510,StudyProc8,JOL,BlockProc2,Shell - ?,68,beach,recallproc2,recall,0
RL_JOL A,9,2,3,BlockProc2,Listen - Fiction,U,69,45,4031,StudyProc8,JOL,BlockProc2,Listen - ?,69,hear,recallproc2,recall,0
RL_JOL A,9,2,3,BlockProc2,Keys - Joke,U,70,0,1499,StudyProc8,JOL,BlockProc2,Keys - ?,70,car,recallproc2,recall,0
RL_JOL A,9,2,3,BlockProc2,Cake - Clothes,U,71,0,4351,StudyProc8,JOL,BlockProc2,Cake - ?,71,brithday,recallproc2,recall,0
RL_JOL A,9,2,3,BlockProc2,Name - Hate,U,72,0,1407,StudyProc8,JOL,BlockProc2,Name - ?,72,tag,recallproc2,recall,0
RL_JOL A,9,2,3,BlockProc2,Fuzzy - Bang,U,73,40,2328,StudyProc8,JOL,BlockProc2,Fuzzy - ?,73,dog,recallproc2,recall,0
RL_JOL A,9,2,3,BlockProc2,Moat - Clear,U,74,0,2472,StudyProc8,JOL,BlockProc2,Moat - ?,74,,recallproc2,recall,0
RL_JOL A,9,2,3,BlockProc2,Lease - Toil,U,75,0,3148,StudyProc8,JOL,BlockProc2,Lease - ?,75,pay,recallproc2,recall,0
RL_JOL A,9,2,3,BlockProc2,Loan - Sign,U,76,25,4195,StudyProc8,JOL,BlockProc2,Loan - ?,76,broke,recallproc2,recall,0
RL_JOL A,9,2,3,BlockProc2,Both - Ounce,U,77,0,1687,StudyProc8,JOL,BlockProc2,Both - ?,77,pair,recallproc2,recall,0
RL_JOL A,9,2,3,BlockProc2,Temperature - Morning,U,78,50,3824,StudyProc8,JOL,BlockProc2,Temperature - ?,78,morning,recallproc2,recall,1
RL_JOL A,9,2,3,BlockProc2,Mirror - Children,U,79,15,2870,StudyProc8,JOL,BlockProc2,Mirror - ?,79,break,recallproc2,recall,0
RL_JOL A,9,2,3,BlockProc2,Main - Scar,U,80,0,1764,StudyProc8,JOL,BlockProc2,Main - ?,80,,recallproc2,recall,0
RL_JOL B,10,1,3,BlockProc1,Extension - Long,F,1,54,10041,StudyProc3,JOL,BlockProc1,Extension - ?,1,,recallproc1,recall,0
RL_JOL B,10,1,3,BlockProc1,Clue - Game,F,2,9,8199,StudyProc3,JOL,BlockProc1,Clue - ?,2,,recallproc1,recall,0
RL_JOL B,10,1,3,BlockProc1,Cactus - Plant,F,3,18,9393,StudyProc3,JOL,BlockProc1,Cactus - ?,3,desert,recallproc1,recall,0
RL_JOL B,10,1,3,BlockProc1,Shoelace - Tie,F,4,3,4363,StudyProc3,JOL,BlockProc1,Shoelace - ?,4,tie,recallproc1,recall,1
RL_JOL B,10,1,3,BlockProc1,Detective - Mystery,F,5,34,1117,StudyProc3,JOL,BlockProc1,Detective - ?,5,,recallproc1,recall,0
RL_JOL B,10,1,3,BlockProc1,Adjourn - End,F,6,23,22741,StudyProc3,JOL,BlockProc1,Adjourn - ?,6,end,recallproc1,recall,1
RL_JOL B,10,1,3,BlockProc1,Furry - Dog,F,7,56,1342,StudyProc3,JOL,BlockProc1,Furry - ?,7,,recallproc1,recall,0
RL_JOL B,10,1,3,BlockProc1,Litter - Trash,F,8,45,27600,StudyProc3,JOL,BlockProc1,Litter - ?,8,trash,recallproc1,recall,1
RL_JOL B,10,1,3,BlockProc1,Cherry - Red,F,9,100,3350,StudyProc3,JOL,BlockProc1,Cherry - ?,9,red,recallproc1,recall,1
RL_JOL B,10,1,3,BlockProc1,Scalp - Head,F,10,65,2142,StudyProc3,JOL,BlockProc1,Scalp - ?,10,heaed,recallproc1,recall,1
RL_JOL B,10,1,3,BlockProc1,Driver - Car,F,11,44,6801,StudyProc3,JOL,BlockProc1,Driver - ?,11,car,recallproc1,recall,1
RL_JOL B,10,1,3,BlockProc1,Chop - Cut,F,12,100,3563,StudyProc3,JOL,BlockProc1,Chop - ?,12,cut,recallproc1,recall,1
RL_JOL B,10,1,3,BlockProc1,Mule - Donkey,F,13,0,3530,StudyProc3,JOL,BlockProc1,Mule - ?,13,,recallproc1,recall,0
RL_JOL B,10,1,3,BlockProc1,Document - Paper,F,14,54,3848,StudyProc3,JOL,BlockProc1,Document - ?,14,paper,recallproc1,recall,1
RL_JOL B,10,1,3,BlockProc1,Incense - Smell,F,15,90,8190,StudyProc3,JOL,BlockProc1,Incense - ?,15,,recallproc1,recall,0
RL_JOL B,10,1,3,BlockProc1,Dine - Eat,F,16,100,11817,StudyProc3,JOL,BlockProc1,Dine - ?,16,eat,recallproc1,recall,1
RL_JOL B,10,1,3,BlockProc1,Shears - Scissors,F,17,56,12037,StudyProc3,JOL,BlockProc1,Shears - ?,17,,recallproc1,recall,0
RL_JOL B,10,1,3,BlockProc1,Feud - Fight,F,18,100,2605,StudyProc3,JOL,BlockProc1,Feud - ?,18,fight,recallproc1,recall,1
RL_JOL B,10,1,3,BlockProc1,Chill - Cold,F,19,9,2668,StudyProc3,JOL,BlockProc1,Chill - ?,19,,recallproc1,recall,0
RL_JOL B,10,1,3,BlockProc1,Affection - Love,F,20,78,1729,StudyProc3,JOL,BlockProc1,Affection - ?,20,,recallproc1,recall,0
RL_JOL B,10,1,3,BlockProc1,Turn - Flip,B,21,78,25426,StudyProc3,JOL,BlockProc1,Turn - ?,21,,recallproc1,recall,0
RL_JOL B,10,1,3,BlockProc1,Car - Windshield,B,22,56,3174,StudyProc3,JOL,BlockProc1,Car - ?,22,,recallproc1,recall,0
RL_JOL B,10,1,3,BlockProc1,Bad - Villain,B,23,24,2062,StudyProc3,JOL,BlockProc1,Bad - ?,23,,recallproc1,recall,0
RL_JOL B,10,1,3,BlockProc1,Bird - Penguin,B,24,5,2487,StudyProc3,JOL,BlockProc1,Bird - ?,24,,recallproc1,recall,0
RL_JOL B,10,1,3,BlockProc1,Star - Actress,B,25,8,2630,StudyProc3,JOL,BlockProc1,Star - ?,25,actress,recallproc1,recall,1
RL_JOL B,10,1,3,BlockProc1,Thread - Thimble,B,26,37,1937,StudyProc3,JOL,BlockProc1,Thread - ?,26,yarn,recallproc1,recall,0
RL_JOL B,10,1,3,BlockProc1,Even - Revenge,B,27,34,2303,StudyProc3,JOL,BlockProc1,Even - ?,27,revenge,recallproc1,recall,1
RL_JOL B,10,1,3,BlockProc1,Pop - Balloon,B,28,6,2632,StudyProc3,JOL,BlockProc1,Pop - ?,28,,recallproc1,recall,0
RL_JOL B,10,1,3,BlockProc1,Fruit - Strawberry,B,29,78,3520,StudyProc3,JOL,BlockProc1,Fruit - ?,29,strawberry,recallproc1,recall,1
RL_JOL B,10,1,3,BlockProc1,Best - Favorite,B,30,13,2491,StudyProc3,JOL,BlockProc1,Best - ?,30,,recallproc1,recall,0
RL_JOL B,10,1,3,BlockProc1,Cat - Panther,B,31,87,6080,StudyProc3,JOL,BlockProc1,Cat - ?,31,turte,recallproc1,recall,0
RL_JOL B,10,1,3,BlockProc1,Glass - Breakable,B,32,72,6680,StudyProc3,JOL,BlockProc1,Glass - ?,32,,recallproc1,recall,0
RL_JOL B,10,1,3,BlockProc1,Dead - Coffin,B,33,2,2404,StudyProc3,JOL,BlockProc1,Dead - ?,33,coffin,recallproc1,recall,1
RL_JOL B,10,1,3,BlockProc1,Plane - Aircraft,B,34,67,17387,StudyProc3,JOL,BlockProc1,Plane - ?,34,,recallproc1,recall,0
RL_JOL B,10,1,3,BlockProc1,Fish - Sardine,B,35,78,1800,StudyProc3,JOL,BlockProc1,Fish - ?,35,,recallproc1,recall,0
RL_JOL B,10,1,3,BlockProc1,Baseball - League,B,36,100,2800,StudyProc3,JOL,BlockProc1,Baseball - ?,36,,recallproc1,recall,0
RL_JOL B,10,1,3,BlockProc1,Money - Banker,B,37,5,2718,StudyProc3,JOL,BlockProc1,Money - ?,37,,recallproc1,recall,0
RL_JOL B,10,1,3,BlockProc1,Honest - Truthful,B,38,89,2135,StudyProc3,JOL,BlockProc1,Honest - ?,38,truth,recallproc1,recall,0
RL_JOL B,10,1,3,BlockProc1,Sleep - Nap,B,39,4,2496,StudyProc3,JOL,BlockProc1,Sleep - ?,39,,recallproc1,recall,0
RL_JOL B,10,1,3,BlockProc1,Fight - Brawl,B,40,19,3833,StudyProc3,JOL,BlockProc1,Fight - ?,40,brawl,recallproc1,recall,1
RL_JOL B,10,1,3,BlockProc1,Razor - Shave,S,41,100,2644,StudyProc7,JOL,BlockProc1,Razor - ?,41,shave,recallproc1,recall,1
RL_JOL B,10,1,3,BlockProc1,Rights - Equal,S,42,100,5339,StudyProc7,JOL,BlockProc1,Rights - ?,42,equa,recallproc1,recall,1
RL_JOL B,10,1,3,BlockProc1,Mason - Jar,S,43,100,3110,StudyProc7,JOL,BlockProc1,Mason - ?,43,jar,recallproc1,recall,1
RL_JOL B,10,1,3,BlockProc1,Candle - Wax,S,44,23,2084,StudyProc7,JOL,BlockProc1,Candle - ?,44,wax,recallproc1,recall,1
