"X.Username.X.ExperimentName.X.Session.X.Trial.X.Date.X.TimeDif.X.Condition.Number.X.Stimuli.File.X.Order.File.X.Condition.Description.X.Condition.Notes.Stimuli.Target.Stimuli.Cue.Stimuli.Answer.Stimuli.Shuffle.Stimuli.Stimuli.Notes.Procedure.Item.Procedure.Trial.Type.Procedure.Post.Trial.Procedure.Timing.Procedure.Procedure.Notes.Procedure.Shuffle.Response.Response1.Response.RT.Response.RTkey.Response.RTlast.Response.strictAcc.Response.lenientAcc.Response.Accuracy.Response.JOL.Response.postRT.Response.postRTkey"
"A14ATQ0J5B0VOX,Collector,1,1,2016-03-04T22:09:01-08:00,-,1,Stimuli/versionAstim.txt,Procedure/versionAproc.txt,Tetris,NA,n/a,n/a,n/a,n/a,n/a,0,Instruct,N/A,User,Click the button below for the first list.,Off,,1980,NA,NA,NA,NA,NA,NA,NA,NA"
"A14ATQ0J5B0VOX,Collector,1,2,2016-03-04T22:09:08-08:00,7,1,Stimuli/versionAstim.txt,Procedure/versionAproc.txt,Tetris,NA,SHAMROCK,,SHAMROCK,OFF,AdHoc_G_L1,9,Study,No,3,AdHoc_G_L1,ON,,3000,NA,NA,NA,NA,NA,NA,NA,NA"
"A14ATQ0J5B0VOX,Collector,1,3,2016-03-04T22:09:14-08:00,6,1,Stimuli/versionAstim.txt,Procedure/versionAproc.txt,Tetris,NA,ALGAE,,ALGAE,OFF,AdHoc_G_L1,16,Study,No,3,AdHoc_G_L1,ON,,3000,NA,NA,NA,NA,NA,NA,NA,NA"
"A14ATQ0J5B0VOX,Collector,1,4,2016-03-04T22:09:20-08:00,6,1,Stimuli/versionAstim.txt,Procedure/versionAproc.txt,Tetris,NA,SPROUTS,,SPROUTS,OFF,AdHoc_G_L1,17,Study,No,3,AdHoc_G_L1,ON,,3000,NA,NA,NA,NA,NA,NA,NA,NA"
"A14ATQ0J5B0VOX,Collector,1,5,2016-03-04T22:09:26-08:00,6,1,Stimuli/versionAstim.txt,Procedure/versionAproc.txt,Tetris,NA,LIME,,LIME,OFF,AdHoc_G_L1,19,Study,No,3,AdHoc_G_L1,ON,,3000,NA,NA,NA,NA,NA,NA,NA,NA"
"A14ATQ0J5B0VOX,Collector,1,6,2016-03-04T22:09:32-08:00,6,1,Stimuli/versionAstim.txt,Procedure/versionAproc.txt,Tetris,NA,MONEY,,MONEY,OFF,AdHoc_G_L1,4,Study,No,3,AdHoc_G_L1,ON,,3000,NA,NA,NA,NA,NA,NA,NA,NA"
"A14ATQ0J5B0VOX,Collector,1,7,2016-03-04T22:09:37-08:00,5,1,Stimuli/versionAstim.txt,Procedure/versionAproc.txt,Tetris,NA,LILY PAD,,LILY PAD,OFF,AdHoc_G_L1,8,Study,No,3,AdHoc_G_L1,ON,,3000,NA,NA,NA,NA,NA,NA,NA,NA"
"A14ATQ0J5B0VOX,Collector,1,8,2016-03-04T22:09:44-08:00,7,1,Stimuli/versionAstim.txt,Procedure/versionAproc.txt,Tetris,NA,JADE,,JADE,OFF,AdHoc_G_L1,10,Study,No,3,AdHoc_G_L1,ON,,3000,NA,NA,NA,NA,NA,NA,NA,NA"
"A14ATQ0J5B0VOX,Collector,1,9,2016-03-04T22:09:49-08:00,5,1,Stimuli/versionAstim.txt,Procedure/versionAproc.txt,Tetris,NA,FROG,,FROG,OFF,AdHoc_G_L1,5,Study,No,3,AdHoc_G_L1,ON,,3000,NA,NA,NA,NA,NA,NA,NA,NA"
"A14ATQ0J5B0VOX,Collector,1,10,2016-03-04T22:09:56-08:00,7,1,Stimuli/versionAstim.txt,Procedure/versionAproc.txt,Tetris,NA,CUCUMBER,,CUCUMBER,OFF,AdHoc_G_L1,2,Study,No,3,AdHoc_G_L1,ON,,3000,NA,NA,NA,NA,NA,NA,NA,NA"
"A14ATQ0J5B0VOX,Collector,1,11,2016-03-04T22:10:02-08:00,6,1,Stimuli/versionAstim.txt,Procedure/versionAproc.txt,Tetris,NA,SNAKE,,SNAKE,OFF,AdHoc_G_L1,15,Study,No,3,AdHoc_G_L1,ON,,3000,NA,NA,NA,NA,NA,NA,NA,NA"
"A14ATQ0J5B0VOX,Collector,1,12,2016-03-04T22:10:08-08:00,6,1,Stimuli/versionAstim.txt,Procedure/versionAproc.txt,Tetris,NA,GRASSHOPPER,,GRASSHOPPER,OFF,AdHoc_G_L1,14,Study,No,3,AdHoc_G_L1,ON,,3000,NA,NA,NA,NA,NA,NA,NA,NA"
"A14ATQ0J5B0VOX,Collector,1,13,2016-03-04T22:10:14-08:00,6,1,Stimuli/versionAstim.txt,Procedure/versionAproc.txt,Tetris,NA,TREE,,TREE,OFF,AdHoc_G_L1,6,Study,No,3,AdHoc_G_L1,ON,,3000,NA,NA,NA,NA,NA,NA,NA,NA"
"A14ATQ0J5B0VOX,Collector,1,14,2016-03-04T22:10:21-08:00,7,1,Stimuli/versionAstim.txt,Procedure/versionAproc.txt,Tetris,NA,JUNGLE,,JUNGLE,OFF,AdHoc_G_L1,11,Study,No,3,AdHoc_G_L1,ON,,3000,NA,NA,NA,NA,NA,NA,NA,NA"
"A14ATQ0J5B0VOX,Collector,1,15,2016-03-04T22:10:27-08:00,6,1,Stimuli/versionAstim.txt,Procedure/versionAproc.txt,Tetris,NA,TENNIS BALL,,TENNIS BALL,OFF,AdHoc_G_L1,13,Study,No,3,AdHoc_G_L1,ON,,3000,NA,NA,NA,NA,NA,NA,NA,NA"
"A14ATQ0J5B0VOX,Collector,1,16,2016-03-04T22:10:35-08:00,8,1,Stimuli/versionAstim.txt,Procedure/versionAproc.txt,Tetris,NA,CHAMELEON,,CHAMELEON,OFF,AdHoc_G_L1,18,Study,No,3,AdHoc_G_L1,ON,,3000,NA,NA,NA,NA,NA,NA,NA,NA"
"A14ATQ0J5B0VOX,Collector,1,17,2016-03-04T22:10:41-08:00,6,1,Stimuli/versionAstim.txt,Procedure/versionAproc.txt,Tetris,NA,LIZARD,,LIZARD,OFF,AdHoc_G_L1,12,Study,No,3,AdHoc_G_L1,ON,,3000,NA,NA,NA,NA,NA,NA,NA,NA"
"A14ATQ0J5B0VOX,Collector,1,18,2016-03-04T22:10:49-08:00,8,1,Stimuli/versionAstim.txt,Procedure/versionAproc.txt,Tetris,NA,LEAVES,,LEAVES,OFF,AdHoc_G_L1,3,Study,No,3,AdHoc_G_L1,ON,,3000,NA,NA,NA,NA,NA,NA,NA,NA"
"A14ATQ0J5B0VOX,Collector,1,19,2016-03-04T22:10:54-08:00,5,1,Stimuli/versionAstim.txt,Procedure/versionAproc.txt,Tetris,NA,SALAD,,SALAD,OFF,AdHoc_G_L1,21,Study,No,3,AdHoc_G_L1,ON,,3000,NA,NA,NA,NA,NA,NA,NA,NA"
"A14ATQ0J5B0VOX,Collector,1,20,2016-03-04T22:11:00-08:00,6,1,Stimuli/versionAstim.txt,Procedure/versionAproc.txt,Tetris,NA,CATERPILLAR,,CATERPILLAR,OFF,AdHoc_G_L1,20,Study,No,3,AdHoc_G_L1,ON,,3000,NA,NA,NA,NA,NA,NA,NA,NA"
"A14ATQ0J5B0VOX,Collector,1,21,2016-03-04T22:11:05-08:00,5,1,Stimuli/versionAstim.txt,Procedure/versionAproc.txt,Tetris,NA,MOSS,,MOSS,OFF,AdHoc_G_L1,7,Study,No,3,AdHoc_G_L1,ON,,3000,NA,NA,NA,NA,NA,NA,NA,NA"
"A14ATQ0J5B0VOX,Collector,1,22,2016-03-04T22:11:36-08:00,31,1,Stimuli/versionAstim.txt,Procedure/versionAproc.txt,Tetris,NA,n/a,n/a,n/a,n/a,n/a,0,Instruct,N/A,User,Guess Instructions: 5 words related to the list you just saw were not presented. Try to guess these words by typing them into the dialog box on the next screen. You must guess at least one.,OFF,,27380,NA,NA,NA,NA,NA,NA,NA,NA"
"A14ATQ0J5B0VOX,Collector,1,23,2016-03-04T22:12:19-08:00,43,1,Stimuli/versionAstim.txt,Procedure/versionAproc.txt,Tetris,NA,n/a,n/a,n/a,n/a,n/a,0,freerecall,N/A,User,Guess Below. You must make at least one guess. Click submit when you are finished.,OFF,lime <br />  <br /> chameleon <br />  <br /> frog <br />  <br /> snake <br />  <br /> jungle <br />  <br /> grasshopper <br />  <br />  <br />  <br /> ,40010,9200,30080,NA,NA,NA,NA,NA,NA"
"A14ATQ0J5B0VOX,Collector,1,24,2016-03-04T22:12:23-08:00,4,1,Stimuli/versionAstim.txt,Procedure/versionAproc.txt,Tetris,NA,n/a,n/a,n/a,n/a,n/a,0,Instruct,N/A,User,Click the button below for the next list.,OFF,,1600,NA,NA,NA,NA,NA,NA,NA,NA"
"A14ATQ0J5B0VOX,Collector,1,25,2016-03-04T22:12:29-08:00,6,1,Stimuli/versionAstim.txt,Procedure/versionAproc.txt,Tetris,NA,TUBE,,TUBE,OFF,Unrel_G_L2,34,Study,No,3,Unrel_G_L2,ON,,3000,NA,NA,NA,NA,NA,NA,NA,NA"
"A14ATQ0J5B0VOX,Collector,1,26,2016-03-04T22:12:35-08:00,6,1,Stimuli/versionAstim.txt,Procedure/versionAproc.txt,Tetris,NA,MAST,,MAST,OFF,Unrel_G_L2,22,Study,No,3,Unrel_G_L2,ON,,3000,NA,NA,NA,NA,NA,NA,NA,NA"
"A14ATQ0J5B0VOX,Collector,1,27,2016-03-04T22:12:41-08:00,6,1,Stimuli/versionAstim.txt,Procedure/versionAproc.txt,Tetris,NA,CORNER,,CORNER,OFF,Unrel_G_L2,30,Study,No,3,Unrel_G_L2,ON,,3000,NA,NA,NA,NA,NA,NA,NA,NA"
"A14ATQ0J5B0VOX,Collector,1,28,2016-03-04T22:12:48-08:00,7,1,Stimuli/versionAstim.txt,Procedure/versionAproc.txt,Tetris,NA,HARNESS,,HARNESS,OFF,Unrel_G_L2,38,Study,No,3,Unrel_G_L2,ON,,3000,NA,NA,NA,NA,NA,NA,NA,NA"
"A14ATQ0J5B0VOX,Collector,1,29,2016-03-04T22:12:54-08:00,6,1,Stimuli/versionAstim.txt,Procedure/versionAproc.txt,Tetris,NA,HOOK,,HOOK,OFF,Unrel_G_L2,27,Study,No,3,Unrel_G_L2,ON,,3000,NA,NA,NA,NA,NA,NA,NA,NA"
"A14ATQ0J5B0VOX,Collector,1,30,2016-03-04T22:12:59-08:00,5,1,Stimuli/versionAstim.txt,Procedure/versionAproc.txt,Tetris,NA,BAG,,BAG,OFF,Unrel_G_L2,32,Study,No,3,Unrel_G_L2,ON,,3000,NA,NA,NA,NA,NA,NA,NA,NA"
"A14ATQ0J5B0VOX,Collector,1,31,2016-03-04T22:13:05-08:00,6,1,Stimuli/versionAstim.txt,Procedure/versionAproc.txt,Tetris,NA,FIELD,,FIELD,OFF,Unrel_G_L2,28,Study,No,3,Unrel_G_L2,ON,,3000,NA,NA,NA,NA,NA,NA,NA,NA"
"A14ATQ0J5B0VOX,Collector,1,32,2016-03-04T22:13:11-08:00,6,1,Stimuli/versionAstim.txt,Procedure/versionAproc.txt,Tetris,NA,FEAST,,FEAST,OFF,Unrel_G_L2,26,Study,No,3,Unrel_G_L2,ON,,3000,NA,NA,NA,NA,NA,NA,NA,NA"
"A14ATQ0J5B0VOX,Collector,1,33,2016-03-04T22:13:17-08:00,6,1,Stimuli/versionAstim.txt,Procedure/versionAproc.txt,Tetris,NA,BARBELL,,BARBELL,OFF,Unrel_G_L2,36,Study,No,3,Unrel_G_L2,ON,,3000,NA,NA,NA,NA,NA,NA,NA,NA"
"A14ATQ0J5B0VOX,Collector,1,34,2016-03-04T22:13:24-08:00,7,1,Stimuli/versionAstim.txt,Procedure/versionAproc.txt,Tetris,NA,CONE,,CONE,OFF,Unrel_G_L2,31,Study,No,3,Unrel_G_L2,ON,,3000,NA,NA,NA,NA,NA,NA,NA,NA"
"A14ATQ0J5B0VOX,Collector,1,35,2016-03-04T22:13:33-08:00,9,1,Stimuli/versionAstim.txt,Procedure/versionAproc.txt,Tetris,NA,SHRIMP,,SHRIMP,OFF,Unrel_G_L2,39,Study,No,3,Unrel_G_L2,ON,,3000,NA,NA,NA,NA,NA,NA,NA,NA"
"A14ATQ0J5B0VOX,Collector,1,36,2016-03-04T22:13:39-08:00,6,1,Stimuli/versionAstim.txt,Procedure/versionAproc.txt,Tetris,NA,BADGE,,BADGE,OFF,Unrel_G_L2,23,Study,No,3,Unrel_G_L2,ON,,3000,NA,NA,NA,NA,NA,NA,NA,NA"
"A14ATQ0J5B0VOX,Collector,1,37,2016-03-04T22:13:44-08:00,5,1,Stimuli/versionAstim.txt,Procedure/versionAproc.txt,Tetris,NA,RIBBON,,RIBBON,OFF,Unrel_G_L2,40,Study,No,3,Unrel_G_L2,ON,,3000,NA,NA,NA,NA,NA,NA,NA,NA"
"A14ATQ0J5B0VOX,Collector,1,38,2016-03-04T22:13:51-08:00,7,1,Stimuli/versionAstim.txt,Procedure/versionAproc.txt,Tetris,NA,INSECT,,INSECT,OFF,Unrel_G_L2,33,Study,No,3,Unrel_G_L2,ON,,3000,NA,NA,NA,NA,NA,NA,NA,NA"
"A14ATQ0J5B0VOX,Collector,1,39,2016-03-04T22:13:57-08:00,6,1,Stimuli/versionAstim.txt,Procedure/versionAproc.txt,Tetris,NA,SAND,,SAND,OFF,Unrel_G_L2,35,Study,No,3,Unrel_G_L2,ON,,3000,NA,NA,NA,NA,NA,NA,NA,NA"
"A14ATQ0J5B0VOX,Collector,1,40,2016-03-04T22:14:03-08:00,6,1,Stimuli/versionAstim.txt,Procedure/versionAproc.txt,Tetris,NA,ROD,,ROD,OFF,Unrel_G_L2,24,Study,No,3,Unrel_G_L2,ON,,3000,NA,NA,NA,NA,NA,NA,NA,NA"
"A14ATQ0J5B0VOX,Collector,1,41,2016-03-04T22:14:08-08:00,5,1,Stimuli/versionAstim.txt,Procedure/versionAproc.txt,Tetris,NA,PIPE,,PIPE,OFF,Unrel_G_L2,37,Study,No,3,Unrel_G_L2,ON,,3000,NA,NA,NA,NA,NA,NA,NA,NA"
"A14ATQ0J5B0VOX,Collector,1,42,2016-03-04T22:14:14-08:00,6,1,Stimuli/versionAstim.txt,Procedure/versionAproc.txt,Tetris,NA,PYRAMID,,PYRAMID,OFF,Unrel_G_L2,25,Study,No,3,Unrel_G_L2,ON,,3000,NA,NA,NA,NA,NA,NA,NA,NA"
"A14ATQ0J5B0VOX,Collector,1,43,2016-03-04T22:14:20-08:00,6,1,Stimuli/versionAstim.txt,Procedure/versionAproc.txt,Tetris,NA,CRYPT,,CRYPT,OFF,Unrel_G_L2,29,Study,No,3,Unrel_G_L2,ON,,3000,NA,NA,NA,NA,NA,NA,NA,NA"
"A14ATQ0J5B0VOX,Collector,1,44,2016-03-04T22:14:28-08:00,8,1,Stimuli/versionAstim.txt,Procedure/versionAproc.txt,Tetris,NA,MANHOLE,,MANHOLE,OFF,Unrel_G_L2,41,Study,No,3,Unrel_G_L2,ON,,3000,NA,NA,NA,NA,NA,NA,NA,NA"
"A14ATQ0J5B0VOX,Collector,1,45,2016-03-04T22:15:36-08:00,68,1,Stimuli/versionAstim.txt,Procedure/versionAproc.txt,Tetris,NA,n/a,n/a,n/a,n/a,n/a,0,Instruct,N/A,User,Guess Instructions: 5 words related to the list you just saw were not presented. Try to guess these words by typing them into the dialog box on the next screen. You must guess at least one.,OFF,,65050,NA,NA,NA,NA,NA,NA,NA,NA"
"A14ATQ0J5B0VOX,Collector,1,46,2016-03-04T22:15:52-08:00,16,1,Stimuli/versionAstim.txt,Procedure/versionAproc.txt,Tetris,NA,n/a,n/a,n/a,n/a,n/a,0,freerecall,N/A,User,Guess Below. You must make at least one guess. Click submit when you are finished.,OFF,cone <br />  <br /> feast <br />  <br /> manhole <br />  <br /> field <br />  <br /> ,13620,4730,10430,NA,NA,NA,NA,NA,NA"
"A14ATQ0J5B0VOX,Collector,1,47,2016-03-04T22:15:57-08:00,5,1,Stimuli/versionAstim.txt,Procedure/versionAproc.txt,Tetris,NA,n/a,n/a,n/a,n/a,n/a,0,Instruct,N/A,User,Click the button below for the next list.,OFF,,1450,NA,NA,NA,NA,NA,NA,NA,NA"
"A14ATQ0J5B0VOX,Collector,1,48,2016-03-04T22:16:02-08:00,5,1,Stimuli/versionAstim.txt,Procedure/versionAproc.txt,Tetris,NA,TANGERINE,,TANGERINE,OFF,Cat_G_L3,47,Study,No,3,Cat_G_L3,ON,,3000,NA,NA,NA,NA,NA,NA,NA,NA"
"A14ATQ0J5B0VOX,Collector,1,49,2016-03-04T22:16:09-08:00,7,1,Stimuli/versionAstim.txt,Procedure/versionAproc.txt,Tetris,NA,BLUEBERRY,,BLUEBERRY,OFF,Cat_G_L3,55,Study,No,3,Cat_G_L3,ON,,3000,NA,NA,NA,NA,NA,NA,NA,NA"
"A14ATQ0J5B0VOX,Collector,1,50,2016-03-04T22:16:14-08:00,5,1,Stimuli/versionAstim.txt,Procedure/versionAproc.txt,Tetris,NA,PEACH,,PEACH,OFF,Cat_G_L3,44,Study,No,3,Cat_G_L3,ON,,3000,NA,NA,NA,NA,NA,NA,NA,NA"
"A14ATQ0J5B0VOX,Collector,1,51,2016-03-04T22:16:20-08:00,6,1,Stimuli/versionAstim.txt,Procedure/versionAproc.txt,Tetris,NA,NECTARINE,,NECTARINE,OFF,Cat_G_L3,59,Study,No,3,Cat_G_L3,ON,,3000,NA,NA,NA,NA,NA,NA,NA,NA"
"A14ATQ0J5B0VOX,Collector,1,52,2016-03-04T22:16:26-08:00,6,1,Stimuli/versionAstim.txt,Procedure/versionAproc.txt,Tetris,NA,GRAPEFRUIT,,GRAPEFRUIT,OFF,Cat_G_L3,46,Study,No,3,Cat_G_L3,ON,,3000,NA,NA,NA,NA,NA,NA,NA,NA"
"A14ATQ0J5B0VOX,Collector,1,53,2016-03-04T22:16:34-08:00,8,1,Stimuli/versionAstim.txt,Procedure/versionAproc.txt,Tetris,NA,PINEAPPLE,,PINEAPPLE,OFF,Cat_G_L3,49,Study,No,3,Cat_G_L3,ON,,3000,NA,NA,NA,NA,NA,NA,NA,NA"
"A14ATQ0J5B0VOX,Collector,1,54,2016-03-04T22:16:39-08:00,5,1,Stimuli/versionAstim.txt,Procedure/versionAproc.txt,Tetris,NA,PEAR,,PEAR,OFF,Cat_G_L3,43,Study,No,3,Cat_G_L3,ON,,3000,NA,NA,NA,NA,NA,NA,NA,NA"
"A14ATQ0J5B0VOX,Collector,1,55,2016-03-04T22:16:45-08:00,6,1,Stimuli/versionAstim.txt,Procedure/versionAproc.txt,Tetris,NA,WATERMELON,,WATERMELON,OFF,Cat_G_L3,52,Study,No,3,Cat_G_L3,ON,,3000,NA,NA,NA,NA,NA,NA,NA,NA"
"A14ATQ0J5B0VOX,Collector,1,56,2016-03-04T22:16:52-08:00,7,1,Stimuli/versionAstim.txt,Procedure/versionAproc.txt,Tetris,NA,STRAWBERRY,,STRAWBERRY,OFF,Cat_G_L3,51,Study,No,3,Cat_G_L3,ON,,3000,NA,NA,NA,NA,NA,NA,NA,NA"
"A14ATQ0J5B0VOX,Collector,1,57,2016-03-04T22:16:58-08:00,6,1,Stimuli/versionAstim.txt,Procedure/versionAproc.txt,Tetris,NA,BLACKBERRY,,BLACKBERRY,OFF,Cat_G_L3,50,Study,No,3,Cat_G_L3,ON,,3000,NA,NA,NA,NA,NA,NA,NA,NA"
"A14ATQ0J5B0VOX,Collector,1,58,2016-03-04T22:17:03-08:00,5,1,Stimuli/versionAstim.txt,Procedure/versionAproc.txt,Tetris,NA,COCONUT,,COCONUT,OFF,Cat_G_L3,58,Study,No,3,Cat_G_L3,ON,,3000,NA,NA,NA,NA,NA,NA,NA,NA"
"A14ATQ0J5B0VOX,Collector,1,59,2016-03-04T22:17:09-08:00,6,1,Stimuli/versionAstim.txt,Procedure/versionAproc.txt,Tetris,NA,CHERRY,,CHERRY,OFF,Cat_G_L3,45,Study,No,3,Cat_G_L3,ON,,3000,NA,NA,NA,NA,NA,NA,NA,NA"
"A14ATQ0J5B0VOX,Collector,1,60,2016-03-04T22:17:15-08:00,6,1,Stimuli/versionAstim.txt,Procedure/versionAproc.txt,Tetris,NA,RAISIN,,RAISIN,OFF,Cat_G_L3,57,Study,No,3,Cat_G_L3,ON,,3000,NA,NA,NA,NA,NA,NA,NA,NA"
"A14ATQ0J5B0VOX,Collector,1,61,2016-03-04T22:17:21-08:00,6,1,Stimuli/versionAstim.txt,Procedure/versionAproc.txt,Tetris,NA,MANGO,,MANGO,OFF,Cat_G_L3,56,Study,No,3,Cat_G_L3,ON,,3000,NA,NA,NA,NA,NA,NA,NA,NA"
"A14ATQ0J5B0VOX,Collector,1,62,2016-03-04T22:17:26-08:00,5,1,Stimuli/versionAstim.txt,Procedure/versionAproc.txt,Tetris,NA,CANTALOUPE,,CANTALOUPE,OFF,Cat_G_L3,53,Study,No,3,Cat_G_L3,ON,,3000,NA,NA,NA,NA,NA,NA,NA,NA"
"A14ATQ0J5B0VOX,Collector,1,63,2016-03-04T22:17:32-08:00,6,1,Stimuli/versionAstim.txt,Procedure/versionAproc.txt,Tetris,NA,APPLE,,APPLE,OFF,Cat_G_L3,42,Study,No,3,Cat_G_L3,ON,,3000,NA,NA,NA,NA,NA,NA,NA,NA"
"A14ATQ0J5B0VOX,Collector,1,64,2016-03-04T22:17:38-08:00,6,1,Stimuli/versionAstim.txt,Procedure/versionAproc.txt,Tetris,NA,RASPBERRY,,RASPBERRY,OFF,Cat_G_L3,54,Study,No,3,Cat_G_L3,ON,,3000,NA,NA,NA,NA,NA,NA,NA,NA"
"A14ATQ0J5B0VOX,Collector,1,65,2016-03-04T22:17:44-08:00,6,1,Stimuli/versionAstim.txt,Procedure/versionAproc.txt,Tetris,NA,HUCKLEBERRY,,HUCKLEBERRY,OFF,Cat_G_L3,61,Study,No,3,Cat_G_L3,ON,,3000,NA,NA,NA,NA,NA,NA,NA,NA"
"A14ATQ0J5B0VOX,Collector,1,66,2016-03-04T22:17:49-08:00,5,1,Stimuli/versionAstim.txt,Procedure/versionAproc.txt,Tetris,NA,HONEYDEW,,HONEYDEW,OFF,Cat_G_L3,60,Study,No,3,Cat_G_L3,ON,,3000,NA,NA,NA,NA,NA,NA,NA,NA"
"A14ATQ0J5B0VOX,Collector,1,67,2016-03-04T22:17:55-08:00,6,1,Stimuli/versionAstim.txt,Procedure/versionAproc.txt,Tetris,NA,APRICOT,,APRICOT,OFF,Cat_G_L3,48,Study,No,3,Cat_G_L3,ON,,3000,NA,NA,NA,NA,NA,NA,NA,NA"
"A14ATQ0J5B0VOX,Collector,1,68,2016-03-04T22:18:06-08:00,11,1,Stimuli/versionAstim.txt,Procedure/versionAproc.txt,Tetris,NA,n/a,n/a,n/a,n/a,n/a,0,Instruct,N/A,User,Guess Instructions: 5 words related to the list you just saw were not presented. Try to guess these words by typing them into the dialog box on the next screen. You must guess at least one.,OFF,,8790,NA,NA,NA,NA,NA,NA,NA,NA"
"A14ATQ0J5B0VOX,Collector,1,69,2016-03-04T22:18:36-08:00,30,1,Stimuli/versionAstim.txt,Procedure/versionAproc.txt,Tetris,NA,n/a,n/a,n/a,n/a,n/a,0,freerecall,N/A,User,Guess Below. You must make at least one guess. Click submit when you are finished.,OFF,coconut <br />  <br /> honey dew <br />  <br /> cantaloupe <br />  <br /> tangerine <br />  <br />  <br />  <br /> ,25690,660,21860,NA,NA,NA,NA,NA,NA"
"A14ATQ0J5B0VOX,Collector,1,70,2016-03-04T22:18:41-08:00,5,1,Stimuli/versionAstim.txt,Procedure/versionAproc.txt,Tetris,NA,n/a,n/a,n/a,n/a,n/a,0,Instruct,N/A,User,Click the button below for the next list.,OFF,,1450,NA,NA,NA,NA,NA,NA,NA,NA"
"A14ATQ0J5B0VOX,Collector,1,71,2016-03-04T22:18:47-08:00,6,1,Stimuli/versionAstim.txt,Procedure/versionAproc.txt,Tetris,NA,CROWD,,CROWD,OFF,AdHoc_G_L4,74,Study,No,3,AdHoc_G_L4,ON,,3000,NA,NA,NA,NA,NA,NA,NA,NA"
"A14ATQ0J5B0VOX,Collector,1,72,2016-03-04T22:18:52-08:00,5,1,Stimuli/versionAstim.txt,Procedure/versionAproc.txt,Tetris,NA,FIREWORKS,,FIREWORKS,OFF,AdHoc_G_L4,76,Study,No,3,AdHoc_G_L4,ON,,3000,NA,NA,NA,NA,NA,NA,NA,NA"
"A14ATQ0J5B0VOX,Collector,1,73,2016-03-04T22:19:00-08:00,8,1,Stimuli/versionAstim.txt,Procedure/versionAproc.txt,Tetris,NA,PARTY,,PARTY,OFF,AdHoc_G_L4,75,Study,No,3,AdHoc_G_L4,ON,,3000,NA,NA,NA,NA,NA,NA,NA,NA"
"A14ATQ0J5B0VOX,Collector,1,74,2016-03-04T22:19:05-08:00,5,1,Stimuli/versionAstim.txt,Procedure/versionAproc.txt,Tetris,NA,STEREO,,STEREO,OFF,AdHoc_G_L4,79,Study,No,3,AdHoc_G_L4,ON,,3000,NA,NA,NA,NA,NA,NA,NA,NA"
"A14ATQ0J5B0VOX,Collector,1,75,2016-03-04T22:19:11-08:00,6,1,Stimuli/versionAstim.txt,Procedure/versionAproc.txt,Tetris,NA,RADIO,,RADIO,OFF,AdHoc_G_L4,70,Study,No,3,AdHoc_G_L4,ON,,3000,NA,NA,NA,NA,NA,NA,NA,NA"
"A14ATQ0J5B0VOX,Collector,1,76,2016-03-04T22:19:17-08:00,6,1,Stimuli/versionAstim.txt,Procedure/versionAproc.txt,Tetris,NA,TRAIN,,TRAIN,OFF,AdHoc_G_L4,62,Study,No,3,AdHoc_G_L4,ON,,3000,NA,NA,NA,NA,NA,NA,NA,NA"
"A14ATQ0J5B0VOX,Collector,1,77,2016-03-04T22:19:23-08:00,6,1,Stimuli/versionAstim.txt,Procedure/versionAproc.txt,Tetris,NA,TELEPHONE,,TELEPHONE,OFF,AdHoc_G_L4,64,Study,No,3,AdHoc_G_L4,ON,,3000,NA,NA,NA,NA,NA,NA,NA,NA"
"A14ATQ0J5B0VOX,Collector,1,78,2016-03-04T22:19:29-08:00,6,1,Stimuli/versionAstim.txt,Procedure/versionAproc.txt,Tetris,NA,TRAFFIC,,TRAFFIC,OFF,AdHoc_G_L4,68,Study,No,3,AdHoc_G_L4,ON,,3000,NA,NA,NA,NA,NA,NA,NA,NA"
"A14ATQ0J5B0VOX,Collector,1,79,2016-03-04T22:19:35-08:00,6,1,Stimuli/versionAstim.txt,Procedure/versionAproc.txt,Tetris,NA,TRUMPET,,TRUMPET,OFF,AdHoc_G_L4,69,Study,No,3,AdHoc_G_L4,ON,,3000,NA,NA,NA,NA,NA,NA,NA,NA"
"A14ATQ0J5B0VOX,Collector,1,80,2016-03-04T22:19:42-08:00,7,1,Stimuli/versionAstim.txt,Procedure/versionAproc.txt,Tetris,NA,BELLS,,BELLS,OFF,AdHoc_G_L4,65,Study,No,3,AdHoc_G_L4,ON,,3000,NA,NA,NA,NA,NA,NA,NA,NA"
"A14ATQ0J5B0VOX,Collector,1,81,2016-03-04T22:19:53-08:00,11,1,Stimuli/versionAstim.txt,Procedure/versionAproc.txt,Tetris,NA,CHAIN SAW,,CHAIN SAW,OFF,AdHoc_G_L4,67,Study,No,3,AdHoc_G_L4,ON,,3000,NA,NA,NA,NA,NA,NA,NA,NA"
"A14ATQ0J5B0VOX,Collector,1,82,2016-03-04T22:20:00-08:00,7,1,Stimuli/versionAstim.txt,Procedure/versionAproc.txt,Tetris,NA,WHISTLE,,WHISTLE,OFF,AdHoc_G_L4,78,Study,No,3,AdHoc_G_L4,ON,,3000,NA,NA,NA,NA,NA,NA,NA,NA"
"A14ATQ0J5B0VOX,Collector,1,83,2016-03-04T22:20:07-08:00,7,1,Stimuli/versionAstim.txt,Procedure/versionAproc.txt,Tetris,NA,TRACTOR,,TRACTOR,OFF,AdHoc_G_L4,71,Study,No,3,AdHoc_G_L4,ON,,3000,NA,NA,NA,NA,NA,NA,NA,NA"
"A14ATQ0J5B0VOX,Collector,1,84,2016-03-04T22:20:13-08:00,6,1,Stimuli/versionAstim.txt,Procedure/versionAproc.txt,Tetris,NA,DRUMS,,DRUMS,OFF,AdHoc_G_L4,73,Study,No,3,AdHoc_G_L4,ON,,3000,NA,NA,NA,NA,NA,NA,NA,NA"
"A14ATQ0J5B0VOX,Collector,1,85,2016-03-04T22:20:19-08:00,6,1,Stimuli/versionAstim.txt,Procedure/versionAproc.txt,Tetris,NA,ORCHESTRA,,ORCHESTRA,OFF,AdHoc_G_L4,72,Study,No,3,AdHoc_G_L4,ON,,3000,NA,NA,NA,NA,NA,NA,NA,NA"
"A14ATQ0J5B0VOX,Collector,1,86,2016-03-04T22:20:26-08:00,7,1,Stimuli/versionAstim.txt,Procedure/versionAproc.txt,Tetris,NA,BLENDER,,BLENDER,OFF,AdHoc_G_L4,66,Study,No,3,AdHoc_G_L4,ON,,3000,NA,NA,NA,NA,NA,NA,NA,NA"
"A14ATQ0J5B0VOX,Collector,1,87,2016-03-04T22:20:32-08:00,6,1,Stimuli/versionAstim.txt,Procedure/versionAproc.txt,Tetris,NA,BABIES,,BABIES,OFF,AdHoc_G_L4,77,Study,No,3,AdHoc_G_L4,ON,,3000,NA,NA,NA,NA,NA,NA,NA,NA"
"A14ATQ0J5B0VOX,Collector,1,88,2016-03-04T22:20:39-08:00,7,1,Stimuli/versionAstim.txt,Procedure/versionAproc.txt,Tetris,NA,BOMB,,BOMB,OFF,AdHoc_G_L4,81,Study,No,3,AdHoc_G_L4,ON,,3000,NA,NA,NA,NA,NA,NA,NA,NA"
"A14ATQ0J5B0VOX,Collector,1,89,2016-03-04T22:20:46-08:00,7,1,Stimuli/versionAstim.txt,Procedure/versionAproc.txt,Tetris,NA,YELL,,YELL,OFF,AdHoc_G_L4,63,Study,No,3,AdHoc_G_L4,ON,,3000,NA,NA,NA,NA,NA,NA,NA,NA"
"A14ATQ0J5B0VOX,Collector,1,90,2016-03-04T22:20:52-08:00,6,1,Stimuli/versionAstim.txt,Procedure/versionAproc.txt,Tetris,NA,ROCKET,,ROCKET,OFF,AdHoc_G_L4,80,Study,No,3,AdHoc_G_L4,ON,,3000,NA,NA,NA,NA,NA,NA,NA,NA"
"A14ATQ0J5B0VOX,Collector,1,91,2016-03-04T22:20:58-08:00,6,1,Stimuli/versionAstim.txt,Procedure/versionAproc.txt,Tetris,NA,n/a,n/a,n/a,n/a,n/a,0,Instruct,N/A,User,Guess Instructions: 5 words related to the list you just saw were not presented. Try to guess these words by typing them into the dialog box on the next screen. You must guess at least one.,OFF,,3380,NA,NA,NA,NA,NA,NA,NA,NA"
"A14ATQ0J5B0VOX,Collector,1,92,2016-03-04T22:21:29-08:00,31,1,Stimuli/versionAstim.txt,Procedure/versionAproc.txt,Tetris,NA,n/a,n/a,n/a,n/a,n/a,0,freerecall,N/A,User,Guess Below. You must make at least one guess. Click submit when you are finished.,OFF,traffic <br />  <br /> tractor <br />  <br /> telephone <br />  <br /> trumpet <br />  <br /> babies,27590,3780,24590,NA,NA,NA,NA,NA,NA"
"A14ATQ0J5B0VOX,Collector,1,93,2016-03-04T22:21:32-08:00,3,1,Stimuli/versionAstim.txt,Procedure/versionAproc.txt,Tetris,NA,n/a,n/a,n/a,n/a,n/a,0,Instruct,N/A,User,Click the button below for the next list.,OFF,,1260,NA,NA,NA,NA,NA,NA,NA,NA"
"A14ATQ0J5B0VOX,Collector,1,94,2016-03-04T22:21:44-08:00,12,1,Stimuli/versionAstim.txt,Procedure/versionAproc.txt,Tetris,NA,RABBIT,,RABBIT,OFF,Cat_G_L5,96,Study,No,3,Cat_G_L5,ON,,3000,NA,NA,NA,NA,NA,NA,NA,NA"
"A14ATQ0J5B0VOX,Collector,1,95,2016-03-04T22:21:58-08:00,14,1,Stimuli/versionAstim.txt,Procedure/versionAproc.txt,Tetris,NA,BEAR,,BEAR,OFF,Cat_G_L5,86,Study,No,3,Cat_G_L5,ON,,3000,NA,NA,NA,NA,NA,NA,NA,NA"
"A14ATQ0J5B0VOX,Collector,1,96,2016-03-04T22:22:05-08:00,7,1,Stimuli/versionAstim.txt,Procedure/versionAproc.txt,Tetris,NA,DOG,,DOG,OFF,Cat_G_L5,82,Study,No,3,Cat_G_L5,ON,,3000,NA,NA,NA,NA,NA,NA,NA,NA"
"A14ATQ0J5B0VOX,Collector,1,97,2016-03-04T22:22:11-08:00,6,1,Stimuli/versionAstim.txt,Procedure/versionAproc.txt,Tetris,NA,DEER,,DEER,OFF,Cat_G_L5,88,Study,No,3,Cat_G_L5,ON,,3000,NA,NA,NA,NA,NA,NA,NA,NA"
"A14ATQ0J5B0VOX,Collector,1,98,2016-03-04T22:22:20-08:00,9,1,Stimuli/versionAstim.txt,Procedure/versionAproc.txt,Tetris,NA,MULE,,MULE,OFF,Cat_G_L5,98,Study,No,3,Cat_G_L5,ON,,3000,NA,NA,NA,NA,NA,NA,NA,NA"
"A14ATQ0J5B0VOX,Collector,1,99,2016-03-04T22:22:26-08:00,6,1,Stimuli/versionAstim.txt,Procedure/versionAproc.txt,Tetris,NA,ZEBRA,,ZEBRA,OFF,Cat_G_L5,92,Study,No,3,Cat_G_L5,ON,,3000,NA,NA,NA,NA,NA,NA,NA,NA"
"A14ATQ0J5B0VOX,Collector,1,100,2016-03-04T22:22:32-08:00,6,1,Stimuli/versionAstim.txt,Procedure/versionAproc.txt,Tetris,NA,GOAT,,GOAT,OFF,Cat_G_L5,91,Study,No,3,Cat_G_L5,ON,,3000,NA,NA,NA,NA,NA,NA,NA,NA"
"A14ATQ0J5B0VOX,Collector,1,101,2016-03-04T22:22:40-08:00,8,1,Stimuli/versionAstim.txt,Procedure/versionAproc.txt,Tetris,NA,SQUIRREL,,SQUIRREL,OFF,Cat_G_L5,93,Study,No,3,Cat_G_L5,ON,,3000,NA,NA,NA,NA,NA,NA,NA,NA"
"A14ATQ0J5B0VOX,Collector,1,102,2016-03-04T22:22:47-08:00,7,1,Stimuli/versionAstim.txt,Procedure/versionAproc.txt,Tetris,NA,WOLF,,WOLF,OFF,Cat_G_L5,94,Study,No,3,Cat_G_L5,ON,,3000,NA,NA,NA,NA,NA,NA,NA,NA"
"A14ATQ0J5B0VOX,Collector,1,103,2016-03-04T22:22:54-08:00,7,1,Stimuli/versionAstim.txt,Procedure/versionAproc.txt,Tetris,NA,LEOPARD,,LEOPARD,OFF,Cat_G_L5,97,Study,No,3,Cat_G_L5,ON,,3000,NA,NA,NA,NA,NA,NA,NA,NA"
"A14ATQ0J5B0VOX,Collector,1,104,2016-03-04T22:23:00-08:00,6,1,Stimuli/versionAstim.txt,Procedure/versionAproc.txt,Tetris,NA,FOX,,FOX,OFF,Cat_G_L5,99,Study,No,3,Cat_G_L5,ON,,3000,NA,NA,NA,NA,NA,NA,NA,NA"
"A14ATQ0J5B0VOX,Collector,1,105,2016-03-04T22:23:09-08:00,9,1,Stimuli/versionAstim.txt,Procedure/versionAproc.txt,Tetris,NA,DONKEY,,DONKEY,OFF,Cat_G_L5,95,Study,No,3,Cat_G_L5,ON,,3000,NA,NA,NA,NA,NA,NA,NA,NA"
"A14ATQ0J5B0VOX,Collector,1,106,2016-03-04T22:23:15-08:00,6,1,Stimuli/versionAstim.txt,Procedure/versionAproc.txt,Tetris,NA,LION,,LION,OFF,Cat_G_L5,84,Study,No,3,Cat_G_L5,ON,,3000,NA,NA,NA,NA,NA,NA,NA,NA"
"A14ATQ0J5B0VOX,Collector,1,107,2016-03-04T22:23:22-08:00,7,1,Stimuli/versionAstim.txt,Procedure/versionAproc.txt,Tetris,NA,RAT,,RAT,OFF,Cat_G_L5,87,Study,No,3,Cat_G_L5,ON,,3000,NA,NA,NA,NA,NA,NA,NA,NA"
"A14ATQ0J5B0VOX,Collector,1,108,2016-03-04T22:23:29-08:00,7,1,Stimuli/versionAstim.txt,Procedure/versionAproc.txt,Tetris,NA,BUFFALO,,BUFFALO,OFF,Cat_G_L5,101,Study,No,3,Cat_G_L5,ON,,3000,NA,NA,NA,NA,NA,NA,NA,NA"
"A14ATQ0J5B0VOX,Collector,1,109,2016-03-04T22:23:35-08:00,6,1,Stimuli/versionAstim.txt,Procedure/versionAproc.txt,Tetris,NA,HORSE,,HORSE,OFF,Cat_G_L5,83,Study,No,3,Cat_G_L5,ON,,3000,NA,NA,NA,NA,NA,NA,NA,NA"
"A14ATQ0J5B0VOX,Collector,1,110,2016-03-04T22:23:41-08:00,6,1,Stimuli/versionAstim.txt,Procedure/versionAproc.txt,Tetris,NA,BULL,,BULL,OFF,Cat_G_L5,100,Study,No,3,Cat_G_L5,ON,,3000,NA,NA,NA,NA,NA,NA,NA,NA"
"A14ATQ0J5B0VOX,Collector,1,111,2016-03-04T22:23:47-08:00,6,1,Stimuli/versionAstim.txt,Procedure/versionAproc.txt,Tetris,NA,GIRAFFE,,GIRAFFE,OFF,Cat_G_L5,90,Study,No,3,Cat_G_L5,ON,,3000,NA,NA,NA,NA,NA,NA,NA,NA"
"A14ATQ0J5B0VOX,Collector,1,112,2016-03-04T22:23:56-08:00,9,1,Stimuli/versionAstim.txt,Procedure/versionAproc.txt,Tetris,NA,ELEPHANT,,ELEPHANT,OFF,Cat_G_L5,85,Study,No,3,Cat_G_L5,ON,,3000,NA,NA,NA,NA,NA,NA,NA,NA"
"A14ATQ0J5B0VOX,Collector,1,113,2016-03-04T22:24:01-08:00,5,1,Stimuli/versionAstim.txt,Procedure/versionAproc.txt,Tetris,NA,SHEEP,,SHEEP,OFF,Cat_G_L5,89,Study,No,3,Cat_G_L5,ON,,3000,NA,NA,NA,NA,NA,NA,NA,NA"
"A14ATQ0J5B0VOX,Collector,1,114,2016-03-04T22:24:19-08:00,18,1,Stimuli/versionAstim.txt,Procedure/versionAproc.txt,Tetris,NA,n/a,n/a,n/a,n/a,n/a,0,Instruct,N/A,User,Guess Instructions: 5 words related to the list you just saw were not presented. Try to guess these words by typing them into the dialog box on the next screen. You must guess at least one.,OFF,,14690,NA,NA,NA,NA,NA,NA,NA,NA"
"A14ATQ0J5B0VOX,Collector,1,115,2016-03-04T22:24:52-08:00,33,1,Stimuli/versionAstim.txt,Procedure/versionAproc.txt,Tetris,NA,n/a,n/a,n/a,n/a,n/a,0,freerecall,N/A,User,Guess Below. You must make at least one guess. Click submit when you are finished.,OFF,Cat <br />  <br /> Goat <br />  <br /> Tiger <br />  <br /> wolf <br />  <br /> ,29860,2210,27680,NA,NA,NA,NA,NA,NA"
"A14ATQ0J5B0VOX,Collector,1,116,2016-03-04T22:24:58-08:00,6,1,Stimuli/versionAstim.txt,Procedure/versionAproc.txt,Tetris,NA,n/a,n/a,n/a,n/a,n/a,0,Instruct,N/A,User,Click the button below for the next list.,OFF,,2560,NA,NA,NA,NA,NA,NA,NA,NA"
"A14ATQ0J5B0VOX,Collector,1,117,2016-03-04T22:25:04-08:00,6,1,Stimuli/versionAstim.txt,Procedure/versionAproc.txt,Tetris,NA,DRIFT,,DRIFT,OFF,Unrel_G_L6,120,Study,No,3,Unrel_G_L6,ON,,3000,NA,NA,NA,NA,NA,NA,NA,NA"
"A14ATQ0J5B0VOX,Collector,1,118,2016-03-04T22:25:09-08:00,5,1,Stimuli/versionAstim.txt,Procedure/versionAproc.txt,Tetris,NA,GRAVY,,GRAVY,OFF,Unrel_G_L6,102,Study,No,3,Unrel_G_L6,ON,,3000,NA,NA,NA,NA,NA,NA,NA,NA"
"A14ATQ0J5B0VOX,Collector,1,119,2016-03-04T22:25:15-08:00,6,1,Stimuli/versionAstim.txt,Procedure/versionAproc.txt,Tetris,NA,BEDROOM,,BEDROOM,OFF,Unrel_G_L6,110,Study,No,3,Unrel_G_L6,ON,,3000,NA,NA,NA,NA,NA,NA,NA,NA"
"A14ATQ0J5B0VOX,Collector,1,120,2016-03-04T22:25:20-08:00,5,1,Stimuli/versionAstim.txt,Procedure/versionAproc.txt,Tetris,NA,COUSIN,,COUSIN,OFF,Unrel_G_L6,104,Study,No,3,Unrel_G_L6,ON,,3000,NA,NA,NA,NA,NA,NA,NA,NA"
"A14ATQ0J5B0VOX,Collector,1,121,2016-03-04T22:25:26-08:00,6,1,Stimuli/versionAstim.txt,Procedure/versionAproc.txt,Tetris,NA,CROWN,,CROWN,OFF,Unrel_G_L6,116,Study,No,3,Unrel_G_L6,ON,,3000,NA,NA,NA,NA,NA,NA,NA,NA"
"A14ATQ0J5B0VOX,Collector,1,122,2016-03-04T22:25:32-08:00,6,1,Stimuli/versionAstim.txt,Procedure/versionAproc.txt,Tetris,NA,CLOCK,,CLOCK,OFF,Unrel_G_L6,103,Study,No,3,Unrel_G_L6,ON,,3000,NA,NA,NA,NA,NA,NA,NA,NA"
"A14ATQ0J5B0VOX,Collector,1,123,2016-03-04T22:25:38-08:00,6,1,Stimuli/versionAstim.txt,Procedure/versionAproc.txt,Tetris,NA,POISON,,POISON,OFF,Unrel_G_L6,111,Study,No,3,Unrel_G_L6,ON,,3000,NA,NA,NA,NA,NA,NA,NA,NA"
"A14ATQ0J5B0VOX,Collector,1,124,2016-03-04T22:25:43-08:00,5,1,Stimuli/versionAstim.txt,Procedure/versionAproc.txt,Tetris,NA,SHORE,,SHORE,OFF,Unrel_G_L6,115,Study,No,3,Unrel_G_L6,ON,,3000,NA,NA,NA,NA,NA,NA,NA,NA"
"A14ATQ0J5B0VOX,Collector,1,125,2016-03-04T22:25:49-08:00,6,1,Stimuli/versionAstim.txt,Procedure/versionAproc.txt,Tetris,NA,HAMSTER,,HAMSTER,OFF,Unrel_G_L6,108,Study,No,3,Unrel_G_L6,ON,,3000,NA,NA,NA,NA,NA,NA,NA,NA"
"A14ATQ0J5B0VOX,Collector,1,126,2016-03-04T22:25:54-08:00,5,1,Stimuli/versionAstim.txt,Procedure/versionAproc.txt,Tetris,NA,CAPSULE,,CAPSULE,OFF,Unrel_G_L6,118,Study,No,3,Unrel_G_L6,ON,,3000,NA,NA,NA,NA,NA,NA,NA,NA"
"A14ATQ0J5B0VOX,Collector,1,127,2016-03-04T22:26:00-08:00,6,1,Stimuli/versionAstim.txt,Procedure/versionAproc.txt,Tetris,NA,MOVIE,,MOVIE,OFF,Unrel_G_L6,117,Study,No,3,Unrel_G_L6,ON,,3000,NA,NA,NA,NA,NA,NA,NA,NA"
"A14ATQ0J5B0VOX,Collector,1,128,2016-03-04T22:26:05-08:00,5,1,Stimuli/versionAstim.txt,Procedure/versionAproc.txt,Tetris,NA,SUNRISE,,SUNRISE,OFF,Unrel_G_L6,121,Study,No,3,Unrel_G_L6,ON,,3000,NA,NA,NA,NA,NA,NA,NA,NA"
"A14ATQ0J5B0VOX,Collector,1,129,2016-03-04T22:26:11-08:00,6,1,Stimuli/versionAstim.txt,Procedure/versionAproc.txt,Tetris,NA,STADIUM,,STADIUM,OFF,Unrel_G_L6,107,Study,No,3,Unrel_G_L6,ON,,3000,NA,NA,NA,NA,NA,NA,NA,NA"
"A14ATQ0J5B0VOX,Collector,1,130,2016-03-04T22:26:16-08:00,5,1,Stimuli/versionAstim.txt,Procedure/versionAproc.txt,Tetris,NA,EARTH,,EARTH,OFF,Unrel_G_L6,114,Study,No,3,Unrel_G_L6,ON,,3000,NA,NA,NA,NA,NA,NA,NA,NA"
"A14ATQ0J5B0VOX,Collector,1,131,2016-03-04T22:26:22-08:00,6,1,Stimuli/versionAstim.txt,Procedure/versionAproc.txt,Tetris,NA,ENGINE,,ENGINE,OFF,Unrel_G_L6,113,Study,No,3,Unrel_G_L6,ON,,3000,NA,NA,NA,NA,NA,NA,NA,NA"
"A14ATQ0J5B0VOX,Collector,1,132,2016-03-04T22:26:27-08:00,5,1,Stimuli/versionAstim.txt,Procedure/versionAproc.txt,Tetris,NA,CAKE,,CAKE,OFF,Unrel_G_L6,105,Study,No,3,Unrel_G_L6,ON,,3000,NA,NA,NA,NA,NA,NA,NA,NA"
"A14ATQ0J5B0VOX,Collector,1,133,2016-03-04T22:26:33-08:00,6,1,Stimuli/versionAstim.txt,Procedure/versionAproc.txt,Tetris,NA,PILOT,,PILOT,OFF,Unrel_G_L6,112,Study,No,3,Unrel_G_L6,ON,,3000,NA,NA,NA,NA,NA,NA,NA,NA"
"A14ATQ0J5B0VOX,Collector,1,134,2016-03-04T22:26:39-08:00,6,1,Stimuli/versionAstim.txt,Procedure/versionAproc.txt,Tetris,NA,DECK,,DECK,OFF,Unrel_G_L6,119,Study,No,3,Unrel_G_L6,ON,,3000,NA,NA,NA,NA,NA,NA,NA,NA"
"A14ATQ0J5B0VOX,Collector,1,135,2016-03-04T22:26:47-08:00,8,1,Stimuli/versionAstim.txt,Procedure/versionAproc.txt,Tetris,NA,FATHER,,FATHER,OFF,Unrel_G_L6,109,Study,No,3,Unrel_G_L6,ON,,3000,NA,NA,NA,NA,NA,NA,NA,NA"
"A14ATQ0J5B0VOX,Collector,1,136,2016-03-04T22:26:52-08:00,5,1,Stimuli/versionAstim.txt,Procedure/versionAproc.txt,Tetris,NA,CROSS,,CROSS,OFF,Unrel_G_L6,106,Study,No,3,Unrel_G_L6,ON,,3000,NA,NA,NA,NA,NA,NA,NA,NA"
"A14ATQ0J5B0VOX,Collector,1,137,2016-03-04T22:27:02-08:00,10,1,Stimuli/versionAstim.txt,Procedure/versionAproc.txt,Tetris,NA,n/a,n/a,n/a,n/a,n/a,0,Instruct,N/A,User,Guess Instructions: 5 words related to the list you just saw were not presented. Try to guess these words by typing them into the dialog box on the next screen. You must guess at least one.,OFF,,5470,NA,NA,NA,NA,NA,NA,NA,NA"
"A14ATQ0J5B0VOX,Collector,1,138,2016-03-04T22:27:30-08:00,28,1,Stimuli/versionAstim.txt,Procedure/versionAproc.txt,Tetris,NA,n/a,n/a,n/a,n/a,n/a,0,freerecall,N/A,User,Guess Below. You must make at least one guess. Click submit when you are finished.,OFF,Aeroplane <br />  <br /> ship <br />  <br /> captain <br />  <br /> ,23510,1450,17380,NA,NA,NA,NA,NA,NA"
"A14ATQ0J5B0VOX,Collector,1,139,2016-03-04T22:27:47-08:00,17,1,Stimuli/versionAstim.txt,Procedure/versionAproc.txt,Tetris,NA,n/a,n/a,n/a,n/a,n/a,0,Instruct,N/A,User,Now you will complete a recognition memory test based on the last 6 lists that you have studied. A word will be displayed on the computer screen and you are to decide whether the word was studied in the last 6 lists. If the word was studied, click the yes button. If the word was not studied, click the no button. Respond as quickly as possible without compromising accuracy.,OFF,,15180,NA,NA,NA,NA,NA,NA,NA,NA"
"A14ATQ0J5B0VOX,Collector,1,140,2016-03-04T22:27:51-08:00,4,1,Stimuli/versionAstim.txt,Procedure/versionAproc.txt,Tetris,NA,n/a,n/a,n/a,n/a,n/a,0,Instruct,N/A,User,Click the button below to begin the test.,OFF,,1310,NA,NA,NA,NA,NA,NA,NA,NA"
"A14ATQ0J5B0VOX,Collector,1,141,2016-03-04T22:27:56-08:00,5,1,Stimuli/versionAstim.txt,Procedure/versionAproc.txt,Tetris,NA,HINGE,,HINGE,OFF,NPLI_Cat_G,271,seqrec,No,User,RGN Test,ON,No,1450,NA,NA,NA,NA,NA,NA,NA,NA"
"A14ATQ0J5B0VOX,Collector,1,142,2016-03-04T22:28:00-08:00,4,1,Stimuli/versionAstim.txt,Procedure/versionAproc.txt,Tetris,NA,GRASS,,GRASS,OFF,CI_AdHoc_G,182,seqrec,No,User,RGN Test,ON,Yes,1450,NA,NA,NA,NA,NA,NA,NA,NA"
"A14ATQ0J5B0VOX,Collector,1,143,2016-03-04T22:28:05-08:00,5,1,Stimuli/versionAstim.txt,Procedure/versionAproc.txt,Tetris,NA,VALLEY,,VALLEY,OFF,NPCI_Unrel_G,283,seqrec,No,User,RGN Test,ON,No,1290,NA,NA,NA,NA,NA,NA,NA,NA"
"A14ATQ0J5B0VOX,Collector,1,144,2016-03-04T22:28:09-08:00,4,1,Stimuli/versionAstim.txt,Procedure/versionAproc.txt,Tetris,NA,FOX,,FOX,OFF,LI_Cat_G,170,seqrec,No,User,RGN Test,ON,Yes,1280,NA,NA,NA,NA,NA,NA,NA,NA"
"A14ATQ0J5B0VOX,Collector,1,145,2016-03-04T22:28:13-08:00,4,1,Stimuli/versionAstim.txt,Procedure/versionAproc.txt,Tetris,NA,TENNIS BALL,,TENNIS BALL,OFF,LI_AdHoc_G,127,seqrec,No,User,RGN Test,ON,No,1150,NA,NA,NA,NA,NA,NA,NA,NA"
"A14ATQ0J5B0VOX,Collector,1,146,2016-03-04T22:28:16-08:00,3,1,Stimuli/versionAstim.txt,Procedure/versionAproc.txt,Tetris,NA,PYRAMID,,PYRAMID,OFF,LI_Unrel_G,133,seqrec,No,User,RGN Test,ON,Yes,980,NA,NA,NA,NA,NA,NA,NA,NA"
"A14ATQ0J5B0VOX,Collector,1,147,2016-03-04T22:28:20-08:00,4,1,Stimuli/versionAstim.txt,Procedure/versionAproc.txt,Tetris,NA,ASPARAGUS,,ASPARAGUS,OFF,NPLI_Cat_G,223,seqrec,No,User,RGN Test,ON,No,1240,NA,NA,NA,NA,NA,NA,NA,NA"
"A14ATQ0J5B0VOX,Collector,1,148,2016-03-04T22:28:25-08:00,5,1,Stimuli/versionAstim.txt,Procedure/versionAproc.txt,Tetris,NA,RAISIN,,RAISIN,OFF,LI_Cat_G,149,seqrec,No,User,RGN Test,ON,Yes,1210,NA,NA,NA,NA,NA,NA,NA,NA"
"A14ATQ0J5B0VOX,Collector,1,149,2016-03-04T22:28:33-08:00,8,1,Stimuli/versionAstim.txt,Procedure/versionAproc.txt,Tetris,NA,FIRE,,FIRE,OFF,NPLI_Unrel_G,251,seqrec,No,User,RGN Test,ON,No,1230,NA,NA,NA,NA,NA,NA,NA,NA"
"A14ATQ0J5B0VOX,Collector,1,150,2016-03-04T22:28:36-08:00,3,1,Stimuli/versionAstim.txt,Procedure/versionAproc.txt,Tetris,NA,BLUEBERRY,,BLUEBERRY,OFF,LI_Cat_G,148,seqrec,No,User,RGN Test,ON,Yes,970,NA,NA,NA,NA,NA,NA,NA,NA"
"A14ATQ0J5B0VOX,Collector,1,151,2016-03-04T22:28:40-08:00,4,1,Stimuli/versionAstim.txt,Procedure/versionAproc.txt,Tetris,NA,BROCCOLI,,BROCCOLI,OFF,CI_AdHoc_G,185,seqrec,No,User,RGN Test,ON,No,1050,NA,NA,NA,NA,NA,NA,NA,NA"
"A14ATQ0J5B0VOX,Collector,1,152,2016-03-04T22:28:43-08:00,3,1,Stimuli/versionAstim.txt,Procedure/versionAproc.txt,Tetris,NA,JACKHAMMER,,JACKHAMMER,OFF,CI_AdHoc_G,197,seqrec,No,User,RGN Test,ON,No,1120,NA,NA,NA,NA,NA,NA,NA,NA"
"A14ATQ0J5B0VOX,Collector,1,153,2016-03-04T22:28:47-08:00,4,1,Stimuli/versionAstim.txt,Procedure/versionAproc.txt,Tetris,NA,SHAMROCK,,SHAMROCK,OFF,LI_AdHoc_G,125,seqrec,No,User,RGN Test,ON,Yes,1160,NA,NA,NA,NA,NA,NA,NA,NA"
"A14ATQ0J5B0VOX,Collector,1,154,2016-03-04T22:28:52-08:00,5,1,Stimuli/versionAstim.txt,Procedure/versionAproc.txt,Tetris,NA,CONE,,CONE,OFF,LI_Unrel_G,136,seqrec,No,User,RGN Test,ON,Yes,950,NA,NA,NA,NA,NA,NA,NA,NA"
"A14ATQ0J5B0VOX,Collector,1,155,2016-03-04T22:28:56-08:00,4,1,Stimuli/versionAstim.txt,Procedure/versionAproc.txt,Tetris,NA,TRUMPET,,TRUMPET,OFF,LI_AdHoc_G,155,seqrec,No,User,RGN Test,ON,Yes,1090,NA,NA,NA,NA,NA,NA,NA,NA"
"A14ATQ0J5B0VOX,Collector,1,156,2016-03-04T22:29:00-08:00,4,1,Stimuli/versionAstim.txt,Procedure/versionAproc.txt,Tetris,NA,BANANA,,BANANA,OFF,CI_Cat_G,193,seqrec,No,User,RGN Test,ON,No,1170,NA,NA,NA,NA,NA,NA,NA,NA"
"A14ATQ0J5B0VOX,Collector,1,157,2016-03-04T22:29:05-08:00,5,1,Stimuli/versionAstim.txt,Procedure/versionAproc.txt,Tetris,NA,SHORE,,SHORE,OFF,LI_Unrel_G,178,seqrec,No,User,RGN Test,ON,No,2650,NA,NA,NA,NA,NA,NA,NA,NA"
"A14ATQ0J5B0VOX,Collector,1,158,2016-03-04T22:29:10-08:00,5,1,Stimuli/versionAstim.txt,Procedure/versionAproc.txt,Tetris,NA,PLUM,,PLUM,OFF,CI_Cat_G,195,seqrec,No,User,RGN Test,ON,No,1220,NA,NA,NA,NA,NA,NA,NA,NA"
"A14ATQ0J5B0VOX,Collector,1,159,2016-03-04T22:29:13-08:00,3,1,Stimuli/versionAstim.txt,Procedure/versionAproc.txt,Tetris,NA,WATER,,WATER,OFF,NPCI_AdHoc_G,273,seqrec,No,User,RGN Test,ON,No,860,NA,NA,NA,NA,NA,NA,NA,NA"
"A14ATQ0J5B0VOX,Collector,1,160,2016-03-04T22:29:20-08:00,7,1,Stimuli/versionAstim.txt,Procedure/versionAproc.txt,Tetris,NA,VAULT,,VAULT,OFF,NPCI_Unrel_G,289,seqrec,No,User,RGN Test,ON,No,1050,NA,NA,NA,NA,NA,NA,NA,NA"
"A14ATQ0J5B0VOX,Collector,1,161,2016-03-04T22:29:26-08:00,6,1,Stimuli/versionAstim.txt,Procedure/versionAproc.txt,Tetris,NA,ASPHALT,,ASPHALT,OFF,NPLI_AdHoc_G,254,seqrec,No,User,RGN Test,ON,No,1990,NA,NA,NA,NA,NA,NA,NA,NA"
"A14ATQ0J5B0VOX,Collector,1,162,2016-03-04T22:29:30-08:00,4,1,Stimuli/versionAstim.txt,Procedure/versionAproc.txt,Tetris,NA,SANDER,,SANDER,OFF,NPLI_Cat_G,268,seqrec,No,User,RGN Test,ON,No,1190,NA,NA,NA,NA,NA,NA,NA,NA"
"A14ATQ0J5B0VOX,Collector,1,163,2016-03-04T22:29:34-08:00,4,1,Stimuli/versionAstim.txt,Procedure/versionAproc.txt,Tetris,NA,ORANGE,,ORANGE,OFF,CI_Cat_G,192,seqrec,No,User,RGN Test,ON,No,1070,NA,NA,NA,NA,NA,NA,NA,NA"
"A14ATQ0J5B0VOX,Collector,1,164,2016-03-04T22:29:38-08:00,4,1,Stimuli/versionAstim.txt,Procedure/versionAproc.txt,Tetris,NA,TEE,,TEE,OFF,NPLI_Unrel_G,232,seqrec,No,User,RGN Test,ON,No,900,NA,NA,NA,NA,NA,NA,NA,NA"
"A14ATQ0J5B0VOX,Collector,1,165,2016-03-04T22:29:42-08:00,4,1,Stimuli/versionAstim.txt,Procedure/versionAproc.txt,Tetris,NA,OCTOPUS,,OCTOPUS,OFF,CI_Unrel_G,190,seqrec,No,User,RGN Test,ON,No,1190,NA,NA,NA,NA,NA,NA,NA,NA"
"A14ATQ0J5B0VOX,Collector,1,166,2016-03-04T22:29:46-08:00,4,1,Stimuli/versionAstim.txt,Procedure/versionAproc.txt,Tetris,NA,CANTALOUPE,,CANTALOUPE,OFF,LI_Cat_G,147,seqrec,No,User,RGN Test,ON,Yes,1130,NA,NA,NA,NA,NA,NA,NA,NA"
"A14ATQ0J5B0VOX,Collector,1,167,2016-03-04T22:29:50-08:00,4,1,Stimuli/versionAstim.txt,Procedure/versionAproc.txt,Tetris,NA,PIPE,,PIPE,OFF,LI_Unrel_G,139,seqrec,No,User,RGN Test,ON,Yes,1740,NA,NA,NA,NA,NA,NA,NA,NA"
"A14ATQ0J5B0VOX,Collector,1,168,2016-03-04T22:29:55-08:00,5,1,Stimuli/versionAstim.txt,Procedure/versionAproc.txt,Tetris,NA,POTATO,,POTATO,OFF,NPLI_Cat_G,222,seqrec,No,User,RGN Test,ON,No,1170,NA,NA,NA,NA,NA,NA,NA,NA"
"A14ATQ0J5B0VOX,Collector,1,169,2016-03-04T22:29:59-08:00,4,1,Stimuli/versionAstim.txt,Procedure/versionAproc.txt,Tetris,NA,MALE,,MALE,OFF,NPLI_Unrel_G,248,seqrec,No,User,RGN Test,ON,No,1000,NA,NA,NA,NA,NA,NA,NA,NA"
"A14ATQ0J5B0VOX,Collector,1,170,2016-03-04T22:30:03-08:00,4,1,Stimuli/versionAstim.txt,Procedure/versionAproc.txt,Tetris,NA,PINEAPPLE,,PINEAPPLE,OFF,LI_Cat_G,145,seqrec,No,User,RGN Test,ON,Yes,1910,NA,NA,NA,NA,NA,NA,NA,NA"
"A14ATQ0J5B0VOX,Collector,1,171,2016-03-04T22:30:08-08:00,5,1,Stimuli/versionAstim.txt,Procedure/versionAproc.txt,Tetris,NA,DONKEY,,DONKEY,OFF,LI_Cat_G,168,seqrec,No,User,RGN Test,ON,Yes,1180,NA,NA,NA,NA,NA,NA,NA,NA"
"A14ATQ0J5B0VOX,Collector,1,172,2016-03-04T22:30:13-08:00,5,1,Stimuli/versionAstim.txt,Procedure/versionAproc.txt,Tetris,NA,GHOUL,,GHOUL,OFF,NPLI_Unrel_G,233,seqrec,No,User,RGN Test,ON,No,1170,NA,NA,NA,NA,NA,NA,NA,NA"
"A14ATQ0J5B0VOX,Collector,1,173,2016-03-04T22:30:18-08:00,5,1,Stimuli/versionAstim.txt,Procedure/versionAproc.txt,Tetris,NA,EGGPLANT,,EGGPLANT,OFF,NPLI_Cat_G,231,seqrec,No,User,RGN Test,ON,No,1310,NA,NA,NA,NA,NA,NA,NA,NA"
"A14ATQ0J5B0VOX,Collector,1,174,2016-03-04T22:30:25-08:00,7,1,Stimuli/versionAstim.txt,Procedure/versionAproc.txt,Tetris,NA,HUCKLEBERRY,,HUCKLEBERRY,OFF,LI_Cat_G,151,seqrec,No,User,RGN Test,ON,No,3420,NA,NA,NA,NA,NA,NA,NA,NA"
"A14ATQ0J5B0VOX,Collector,1,175,2016-03-04T22:30:29-08:00,4,1,Stimuli/versionAstim.txt,Procedure/versionAproc.txt,Tetris,NA,GASOLINE,,GASOLINE,OFF,NPLI_AdHoc_G,219,seqrec,No,User,RGN Test,ON,No,1110,NA,NA,NA,NA,NA,NA,NA,NA"
"A14ATQ0J5B0VOX,Collector,1,176,2016-03-04T22:30:34-08:00,5,1,Stimuli/versionAstim.txt,Procedure/versionAproc.txt,Tetris,NA,SAW,,SAW,OFF,NPCI_Cat_G,297,seqrec,No,User,RGN Test,ON,No,2590,NA,NA,NA,NA,NA,NA,NA,NA"
"A14ATQ0J5B0VOX,Collector,1,177,2016-03-04T22:30:38-08:00,4,1,Stimuli/versionAstim.txt,Procedure/versionAproc.txt,Tetris,NA,TREAT,,TREAT,OFF,NPCI_Unrel_G,287,seqrec,No,User,RGN Test,ON,No,1340,NA,NA,NA,NA,NA,NA,NA,NA"
"A14ATQ0J5B0VOX,Collector,1,178,2016-03-04T22:30:42-08:00,4,1,Stimuli/versionAstim.txt,Procedure/versionAproc.txt,Tetris,NA,CLOCK,,CLOCK,OFF,LI_Unrel_G,172,seqrec,No,User,RGN Test,ON,No,930,NA,NA,NA,NA,NA,NA,NA,NA"
"A14ATQ0J5B0VOX,Collector,1,179,2016-03-04T22:30:46-08:00,4,1,Stimuli/versionAstim.txt,Procedure/versionAproc.txt,Tetris,NA,SCREWS,,SCREWS,OFF,NPLI_Cat_G,264,seqrec,No,User,RGN Test,ON,No,1040,NA,NA,NA,NA,NA,NA,NA,NA"
"A14ATQ0J5B0VOX,Collector,1,180,2016-03-04T22:30:49-08:00,3,1,Stimuli/versionAstim.txt,Procedure/versionAproc.txt,Tetris,NA,MUD,,MUD,OFF,CI_Unrel_G,209,seqrec,No,User,RGN Test,ON,No,940,NA,NA,NA,NA,NA,NA,NA,NA"
"A14ATQ0J5B0VOX,Collector,1,181,2016-03-04T22:30:52-08:00,3,1,Stimuli/versionAstim.txt,Procedure/versionAproc.txt,Tetris,NA,INCENSE,,INCENSE,OFF,NPLI_Unrel_G,240,seqrec,No,User,RGN Test,ON,No,860,NA,NA,NA,NA,NA,NA,NA,NA"
"A14ATQ0J5B0VOX,Collector,1,182,2016-03-04T22:30:56-08:00,4,1,Stimuli/versionAstim.txt,Procedure/versionAproc.txt,Tetris,NA,DOME,,DOME,OFF,NPLI_Unrel_G,235,seqrec,No,User,RGN Test,ON,No,760,NA,NA,NA,NA,NA,NA,NA,NA"
"A14ATQ0J5B0VOX,Collector,1,183,2016-03-04T22:31:01-08:00,5,1,Stimuli/versionAstim.txt,Procedure/versionAproc.txt,Tetris,NA,COMEDY,,COMEDY,OFF,NPCI_Unrel_G,286,seqrec,No,User,RGN Test,ON,No,1020,NA,NA,NA,NA,NA,NA,NA,NA"
"A14ATQ0J5B0VOX,Collector,1,184,2016-03-04T22:31:04-08:00,3,1,Stimuli/versionAstim.txt,Procedure/versionAproc.txt,Tetris,NA,WOUND,,WOUND,OFF,CI_Unrel_G,189,seqrec,No,User,RGN Test,ON,No,950,NA,NA,NA,NA,NA,NA,NA,NA"
"A14ATQ0J5B0VOX,Collector,1,185,2016-03-04T22:31:08-08:00,4,1,Stimuli/versionAstim.txt,Procedure/versionAproc.txt,Tetris,NA,STEREO,,STEREO,OFF,LI_AdHoc_G,160,seqrec,No,User,RGN Test,ON,Yes,1240,NA,NA,NA,NA,NA,NA,NA,NA"
"A14ATQ0J5B0VOX,Collector,1,186,2016-03-04T22:31:15-08:00,7,1,Stimuli/versionAstim.txt,Procedure/versionAproc.txt,Tetris,NA,LEOPARD,,LEOPARD,OFF,LI_Cat_G,169,seqrec,No,User,RGN Test,ON,No,3780,NA,NA,NA,NA,NA,NA,NA,NA"
"A14ATQ0J5B0VOX,Collector,1,187,2016-03-04T22:31:19-08:00,4,1,Stimuli/versionAstim.txt,Procedure/versionAproc.txt,Tetris,NA,WINE,,WINE,OFF,NPLI_AdHoc_G,215,seqrec,No,User,RGN Test,ON,No,1470,NA,NA,NA,NA,NA,NA,NA,NA"
"A14ATQ0J5B0VOX,Collector,1,188,2016-03-04T22:31:22-08:00,3,1,Stimuli/versionAstim.txt,Procedure/versionAproc.txt,Tetris,NA,VISE,,VISE,OFF,NPLI_Cat_G,270,seqrec,No,User,RGN Test,ON,No,1010,NA,NA,NA,NA,NA,NA,NA,NA"
"A14ATQ0J5B0VOX,Collector,1,189,2016-03-04T22:31:27-08:00,5,1,Stimuli/versionAstim.txt,Procedure/versionAproc.txt,Tetris,NA,GRAPE,,GRAPE,OFF,CI_Cat_G,194,seqrec,No,User,RGN Test,ON,No,1540,NA,NA,NA,NA,NA,NA,NA,NA"
"A14ATQ0J5B0VOX,Collector,1,190,2016-03-04T22:31:32-08:00,5,1,Stimuli/versionAstim.txt,Procedure/versionAproc.txt,Tetris,NA,WRECK,,WRECK,OFF,NPLI_Unrel_G,242,seqrec,No,User,RGN Test,ON,Yes,2060,NA,NA,NA,NA,NA,NA,NA,NA"
"A14ATQ0J5B0VOX,Collector,1,191,2016-03-04T22:31:37-08:00,5,1,Stimuli/versionAstim.txt,Procedure/versionAproc.txt,Tetris,NA,FROG,,FROG,OFF,LI_AdHoc_G,123,seqrec,No,User,RGN Test,ON,Yes,1210,NA,NA,NA,NA,NA,NA,NA,NA"
"A14ATQ0J5B0VOX,Collector,1,192,2016-03-04T22:31:42-08:00,5,1,Stimuli/versionAstim.txt,Procedure/versionAproc.txt,Tetris,NA,PUMPKIN,,PUMPKIN,OFF,NPLI_Cat_G,230,seqrec,No,User,RGN Test,ON,No,1360,NA,NA,NA,NA,NA,NA,NA,NA"
"A14ATQ0J5B0VOX,Collector,1,193,2016-03-04T22:31:46-08:00,4,1,Stimuli/versionAstim.txt,Procedure/versionAproc.txt,Tetris,NA,RAVEN,,RAVEN,OFF,NPCI_AdHoc_G,295,seqrec,No,User,RGN Test,ON,No,1160,NA,NA,NA,NA,NA,NA,NA,NA"
"A14ATQ0J5B0VOX,Collector,1,194,2016-03-04T22:31:51-08:00,5,1,Stimuli/versionAstim.txt,Procedure/versionAproc.txt,Tetris,NA,BAT,,BAT,OFF,NPCI_AdHoc_G,294,seqrec,No,User,RGN Test,ON,No,1380,NA,NA,NA,NA,NA,NA,NA,NA"
"A14ATQ0J5B0VOX,Collector,1,195,2016-03-04T22:31:56-08:00,5,1,Stimuli/versionAstim.txt,Procedure/versionAproc.txt,Tetris,NA,HOT CHOCOLATE,,HOT CHOCOLATE,OFF,NPLI_AdHoc_G,216,seqrec,No,User,RGN Test,ON,No,1730,NA,NA,NA,NA,NA,NA,NA,NA"
"A14ATQ0J5B0VOX,Collector,1,196,2016-03-04T22:32:01-08:00,5,1,Stimuli/versionAstim.txt,Procedure/versionAproc.txt,Tetris,NA,CHERRY,,CHERRY,OFF,LI_Cat_G,143,seqrec,No,User,RGN Test,ON,Yes,1440,NA,NA,NA,NA,NA,NA,NA,NA"
"A14ATQ0J5B0VOX,Collector,1,197,2016-03-04T22:32:06-08:00,5,1,Stimuli/versionAstim.txt,Procedure/versionAproc.txt,Tetris,NA,TOWN,,TOWN,OFF,CI_Unrel_G,187,seqrec,No,User,RGN Test,ON,No,1410,NA,NA,NA,NA,NA,NA,NA,NA"
"A14ATQ0J5B0VOX,Collector,1,198,2016-03-04T22:32:09-08:00,3,1,Stimuli/versionAstim.txt,Procedure/versionAproc.txt,Tetris,NA,NIGHT,,NIGHT,OFF,NPCI_AdHoc_G,293,seqrec,No,User,RGN Test,ON,No,1010,NA,NA,NA,NA,NA,NA,NA,NA"
"A14ATQ0J5B0VOX,Collector,1,199,2016-03-04T22:32:13-08:00,4,1,Stimuli/versionAstim.txt,Procedure/versionAproc.txt,Tetris,NA,TURNIP,,TURNIP,OFF,NPLI_Cat_G,228,seqrec,No,User,RGN Test,ON,No,1280,NA,NA,NA,NA,NA,NA,NA,NA"
"A14ATQ0J5B0VOX,Collector,1,200,2016-03-04T22:32:18-08:00,5,1,Stimuli/versionAstim.txt,Procedure/versionAproc.txt,Tetris,NA,ART,,ART,OFF,CI_Unrel_G,211,seqrec,No,User,RGN Test,ON,No,870,NA,NA,NA,NA,NA,NA,NA,NA"
"A14ATQ0J5B0VOX,Collector,1,201,2016-03-04T22:32:23-08:00,5,1,Stimuli/versionAstim.txt,Procedure/versionAproc.txt,Tetris,NA,SALAD,,SALAD,OFF,LI_AdHoc_G,131,seqrec,No,User,RGN Test,ON,No,1460,NA,NA,NA,NA,NA,NA,NA,NA"
"A14ATQ0J5B0VOX,Collector,1,202,2016-03-04T22:32:26-08:00,3,1,Stimuli/versionAstim.txt,Procedure/versionAproc.txt,Tetris,NA,RAINBOW,,RAINBOW,OFF,NPLI_Unrel_G,243,seqrec,No,User,RGN Test,ON,No,1070,NA,NA,NA,NA,NA,NA,NA,NA"
"A14ATQ0J5B0VOX,Collector,1,203,2016-03-04T22:32:30-08:00,4,1,Stimuli/versionAstim.txt,Procedure/versionAproc.txt,Tetris,NA,YARD,,YARD,OFF,NPLI_Unrel_G,237,seqrec,No,User,RGN Test,ON,No,1070,NA,NA,NA,NA,NA,NA,NA,NA"
"A14ATQ0J5B0VOX,Collector,1,204,2016-03-04T22:32:34-08:00,4,1,Stimuli/versionAstim.txt,Procedure/versionAproc.txt,Tetris,NA,SHADOW,,SHADOW,OFF,NPLI_AdHoc_G,260,seqrec,No,User,RGN Test,ON,No,1100,NA,NA,NA,NA,NA,NA,NA,NA"
"A14ATQ0J5B0VOX,Collector,1,205,2016-03-04T22:32:38-08:00,4,1,Stimuli/versionAstim.txt,Procedure/versionAproc.txt,Tetris,NA,RAT,,RAT,OFF,LI_Cat_G,164,seqrec,No,User,RGN Test,ON,Yes,1060,NA,NA,NA,NA,NA,NA,NA,NA"
"A14ATQ0J5B0VOX,Collector,1,206,2016-03-04T22:32:43-08:00,5,1,Stimuli/versionAstim.txt,Procedure/versionAproc.txt,Tetris,NA,REPTILE,,REPTILE,OFF,NPLI_Unrel_G,241,seqrec,No,User,RGN Test,ON,No,1240,NA,NA,NA,NA,NA,NA,NA,NA"
"A14ATQ0J5B0VOX,Collector,1,207,2016-03-04T22:32:48-08:00,5,1,Stimuli/versionAstim.txt,Procedure/versionAproc.txt,Tetris,NA,MOUSE,,MOUSE,OFF,CI_Cat_G,206,seqrec,No,User,RGN Test,ON,No,1200,NA,NA,NA,NA,NA,NA,NA,NA"
"A14ATQ0J5B0VOX,Collector,1,208,2016-03-04T22:32:56-08:00,8,1,Stimuli/versionAstim.txt,Procedure/versionAproc.txt,Tetris,NA,COFFEE,,COFFEE,OFF,NPCI_AdHoc_G,272,seqrec,No,User,RGN Test,ON,No,1100,NA,NA,NA,NA,NA,NA,NA,NA"
"A14ATQ0J5B0VOX,Collector,1,209,2016-03-04T22:33:01-08:00,5,1,Stimuli/versionAstim.txt,Procedure/versionAproc.txt,Tetris,NA,CAT,,CAT,OFF,CI_Cat_G,202,seqrec,No,User,RGN Test,ON,No,1500,NA,NA,NA,NA,NA,NA,NA,NA"
"A14ATQ0J5B0VOX,Collector,1,210,2016-03-04T22:33:05-08:00,4,1,Stimuli/versionAstim.txt,Procedure/versionAproc.txt,Tetris,NA,CAKE,,CAKE,OFF,LI_Unrel_G,173,seqrec,No,User,RGN Test,ON,Yes,1280,NA,NA,NA,NA,NA,NA,NA,NA"
"A14ATQ0J5B0VOX,Collector,1,211,2016-03-04T22:33:10-08:00,5,1,Stimuli/versionAstim.txt,Procedure/versionAproc.txt,Tetris,NA,CROW,,CROW,OFF,NPCI_AdHoc_G,296,seqrec,No,User,RGN Test,ON,No,1180,NA,NA,NA,NA,NA,NA,NA,NA"
"A14ATQ0J5B0VOX,Collector,1,212,2016-03-04T22:33:13-08:00,3,1,Stimuli/versionAstim.txt,Procedure/versionAproc.txt,Tetris,NA,WITCH,,WITCH,OFF,NPLI_AdHoc_G,255,seqrec,No,User,RGN Test,ON,No,1010,NA,NA,NA,NA,NA,NA,NA,NA"
"A14ATQ0J5B0VOX,Collector,1,213,2016-03-04T22:33:19-08:00,6,1,Stimuli/versionAstim.txt,Procedure/versionAproc.txt,Tetris,NA,STRAWBERRY,,STRAWBERRY,OFF,LI_Cat_G,146,seqrec,No,User,RGN Test,ON,Yes,1670,NA,NA,NA,NA,NA,NA,NA,NA"
"A14ATQ0J5B0VOX,Collector,1,214,2016-03-04T22:33:24-08:00,5,1,Stimuli/versionAstim.txt,Procedure/versionAproc.txt,Tetris,NA,MOSS,,MOSS,OFF,LI_AdHoc_G,124,seqrec,No,User,RGN Test,ON,No,1090,NA,NA,NA,NA,NA,NA,NA,NA"
"A14ATQ0J5B0VOX,Collector,1,215,2016-03-04T22:33:28-08:00,4,1,Stimuli/versionAstim.txt,Procedure/versionAproc.txt,Tetris,NA,BABIES,,BABIES,OFF,LI_AdHoc_G,159,seqrec,No,User,RGN Test,ON,Yes,1110,NA,NA,NA,NA,NA,NA,NA,NA"
"A14ATQ0J5B0VOX,Collector,1,216,2016-03-04T22:33:32-08:00,4,1,Stimuli/versionAstim.txt,Procedure/versionAproc.txt,Tetris,NA,COAST,,COAST,OFF,CI_Unrel_G,208,seqrec,No,User,RGN Test,ON,No,1380,NA,NA,NA,NA,NA,NA,NA,NA"
"A14ATQ0J5B0VOX,Collector,1,217,2016-03-04T22:33:36-08:00,4,1,Stimuli/versionAstim.txt,Procedure/versionAproc.txt,Tetris,NA,CAULIFLOWER,,CAULIFLOWER,OFF,NPLI_Cat_G,225,seqrec,No,User,RGN Test,ON,No,1130,NA,NA,NA,NA,NA,NA,NA,NA"
"A14ATQ0J5B0VOX,Collector,1,218,2016-03-04T22:33:42-08:00,6,1,Stimuli/versionAstim.txt,Procedure/versionAproc.txt,Tetris,NA,WEDGE,,WEDGE,OFF,NPLI_Cat_G,269,seqrec,No,User,RGN Test,ON,No,2680,NA,NA,NA,NA,NA,NA,NA,NA"
"A14ATQ0J5B0VOX,Collector,1,219,2016-03-04T22:33:48-08:00,6,1,Stimuli/versionAstim.txt,Procedure/versionAproc.txt,Tetris,NA,SCREWDRIVER,,SCREWDRIVER,OFF,NPCI_Cat_G,298,seqrec,No,User,RGN Test,ON,No,1240,NA,NA,NA,NA,NA,NA,NA,NA"
"A14ATQ0J5B0VOX,Collector,1,220,2016-03-04T22:33:52-08:00,4,1,Stimuli/versionAstim.txt,Procedure/versionAproc.txt,Tetris,NA,LIMA BEANS,,LIMA BEANS,OFF,NPLI_Cat_G,226,seqrec,No,User,RGN Test,ON,No,1010,NA,NA,NA,NA,NA,NA,NA,NA"
"A14ATQ0J5B0VOX,Collector,1,221,2016-03-04T22:33:57-08:00,5,1,Stimuli/versionAstim.txt,Procedure/versionAproc.txt,Tetris,NA,COAL,,COAL,OFF,NPCI_AdHoc_G,292,seqrec,No,User,RGN Test,ON,No,1240,NA,NA,NA,NA,NA,NA,NA,NA"
"A14ATQ0J5B0VOX,Collector,1,222,2016-03-04T22:34:00-08:00,3,1,Stimuli/versionAstim.txt,Procedure/versionAproc.txt,Tetris,NA,LATHE,,LATHE,OFF,NPLI_Cat_G,266,seqrec,No,User,RGN Test,ON,No,1000,NA,NA,NA,NA,NA,NA,NA,NA"
"A14ATQ0J5B0VOX,Collector,1,223,2016-03-04T22:34:04-08:00,4,1,Stimuli/versionAstim.txt,Procedure/versionAproc.txt,Tetris,NA,BOMB,,BOMB,OFF,LI_AdHoc_G,161,seqrec,No,User,RGN Test,ON,Yes,1040,NA,NA,NA,NA,NA,NA,NA,NA"
"A14ATQ0J5B0VOX,Collector,1,224,2016-03-04T22:34:07-08:00,3,1,Stimuli/versionAstim.txt,Procedure/versionAproc.txt,Tetris,NA,MERCURY,,MERCURY,OFF,NPLI_AdHoc_G,213,seqrec,No,User,RGN Test,ON,No,920,NA,NA,NA,NA,NA,NA,NA,NA"
"A14ATQ0J5B0VOX,Collector,1,225,2016-03-04T22:34:11-08:00,4,1,Stimuli/versionAstim.txt,Procedure/versionAproc.txt,Tetris,NA,CREPE,,CREPE,OFF,NPLI_Unrel_G,246,seqrec,No,User,RGN Test,ON,No,1000,NA,NA,NA,NA,NA,NA,NA,NA"
"A14ATQ0J5B0VOX,Collector,1,226,2016-03-04T22:34:15-08:00,4,1,Stimuli/versionAstim.txt,Procedure/versionAproc.txt,Tetris,NA,SPIKE,,SPIKE,OFF,NPLI_Unrel_G,234,seqrec,No,User,RGN Test,ON,No,1070,NA,NA,NA,NA,NA,NA,NA,NA"
"A14ATQ0J5B0VOX,Collector,1,227,2016-03-04T22:34:20-08:00,5,1,Stimuli/versionAstim.txt,Procedure/versionAproc.txt,Tetris,NA,INSECT,,INSECT,OFF,LI_Unrel_G,137,seqrec,No,User,RGN Test,ON,Yes,1170,NA,NA,NA,NA,NA,NA,NA,NA"
"A14ATQ0J5B0VOX,Collector,1,228,2016-03-04T22:34:25-08:00,5,1,Stimuli/versionAstim.txt,Procedure/versionAproc.txt,Tetris,NA,TANGERINE,,TANGERINE,OFF,LI_Cat_G,144,seqrec,No,User,RGN Test,ON,Yes,1310,NA,NA,NA,NA,NA,NA,NA,NA"
"A14ATQ0J5B0VOX,Collector,1,229,2016-03-04T22:34:29-08:00,4,1,Stimuli/versionAstim.txt,Procedure/versionAproc.txt,Tetris,NA,CABBAGE,,CABBAGE,OFF,NPLI_Cat_G,224,seqrec,No,User,RGN Test,ON,No,1380,NA,NA,NA,NA,NA,NA,NA,NA"
"A14ATQ0J5B0VOX,Collector,1,230,2016-03-04T22:34:33-08:00,4,1,Stimuli/versionAstim.txt,Procedure/versionAproc.txt,Tetris,NA,SQUIRREL,,SQUIRREL,OFF,LI_Cat_G,167,seqrec,No,User,RGN Test,ON,Yes,1060,NA,NA,NA,NA,NA,NA,NA,NA"
"A14ATQ0J5B0VOX,Collector,1,231,2016-03-04T22:34:37-08:00,4,1,Stimuli/versionAstim.txt,Procedure/versionAproc.txt,Tetris,NA,PUCK,,PUCK,OFF,NPLI_AdHoc_G,252,seqrec,No,User,RGN Test,ON,No,1010,NA,NA,NA,NA,NA,NA,NA,NA"
"A14ATQ0J5B0VOX,Collector,1,232,2016-03-04T22:34:41-08:00,4,1,Stimuli/versionAstim.txt,Procedure/versionAproc.txt,Tetris,NA,PACKET,,PACKET,OFF,NPCI_Unrel_G,290,seqrec,No,User,RGN Test,ON,No,1040,NA,NA,NA,NA,NA,NA,NA,NA"
"A14ATQ0J5B0VOX,Collector,1,233,2016-03-04T22:34:47-08:00,6,1,Stimuli/versionAstim.txt,Procedure/versionAproc.txt,Tetris,NA,GREEN BEANS,,GREEN BEANS,OFF,NPCI_Cat_G,278,seqrec,No,User,RGN Test,ON,No,1720,NA,NA,NA,NA,NA,NA,NA,NA"
"A14ATQ0J5B0VOX,Collector,1,234,2016-03-04T22:34:50-08:00,3,1,Stimuli/versionAstim.txt,Procedure/versionAproc.txt,Tetris,NA,SHRIMP,,SHRIMP,OFF,LI_Unrel_G,140,seqrec,No,User,RGN Test,ON,No,780,NA,NA,NA,NA,NA,NA,NA,NA"
"A14ATQ0J5B0VOX,Collector,1,235,2016-03-04T22:34:55-08:00,5,1,Stimuli/versionAstim.txt,Procedure/versionAproc.txt,Tetris,NA,GUN,,GUN,OFF,CI_AdHoc_G,198,seqrec,No,User,RGN Test,ON,No,1230,NA,NA,NA,NA,NA,NA,NA,NA"
"A14ATQ0J5B0VOX,Collector,1,236,2016-03-04T22:34:59-08:00,4,1,Stimuli/versionAstim.txt,Procedure/versionAproc.txt,Tetris,NA,LEAVES,,LEAVES,OFF,LI_AdHoc_G,122,seqrec,No,User,RGN Test,ON,Yes,1350,NA,NA,NA,NA,NA,NA,NA,NA"
"A14ATQ0J5B0VOX,Collector,1,237,2016-03-04T22:35:04-08:00,5,1,Stimuli/versionAstim.txt,Procedure/versionAproc.txt,Tetris,NA,SCOUT,,SCOUT,OFF,NPLI_Unrel_G,236,seqrec,No,User,RGN Test,ON,No,1000,NA,NA,NA,NA,NA,NA,NA,NA"
"A14ATQ0J5B0VOX,Collector,1,238,2016-03-04T22:35:08-08:00,4,1,Stimuli/versionAstim.txt,Procedure/versionAproc.txt,Tetris,NA,PEDAL,,PEDAL,OFF,CI_Unrel_G,191,seqrec,No,User,RGN Test,ON,No,1130,NA,NA,NA,NA,NA,NA,NA,NA"
"A14ATQ0J5B0VOX,Collector,1,239,2016-03-04T22:35:14-08:00,6,1,Stimuli/versionAstim.txt,Procedure/versionAproc.txt,Tetris,NA,SIREN,,SIREN,OFF,CI_AdHoc_G,199,seqrec,No,User,RGN Test,ON,No,1150,NA,NA,NA,NA,NA,NA,NA,NA"
"A14ATQ0J5B0VOX,Collector,1,240,2016-03-04T22:35:20-08:00,6,1,Stimuli/versionAstim.txt,Procedure/versionAproc.txt,Tetris,NA,SPINACH,,SPINACH,OFF,NPCI_Cat_G,280,seqrec,No,User,RGN Test,ON,No,1050,NA,NA,NA,NA,NA,NA,NA,NA"
"A14ATQ0J5B0VOX,Collector,1,241,2016-03-04T22:35:23-08:00,3,1,Stimuli/versionAstim.txt,Procedure/versionAproc.txt,Tetris,NA,WHIP,,WHIP,OFF,NPLI_Unrel_G,250,seqrec,No,User,RGN Test,ON,No,910,NA,NA,NA,NA,NA,NA,NA,NA"
"A14ATQ0J5B0VOX,Collector,1,242,2016-03-04T22:35:30-08:00,7,1,Stimuli/versionAstim.txt,Procedure/versionAproc.txt,Tetris,NA,OBSIDIAN,,OBSIDIAN,OFF,NPLI_AdHoc_G,259,seqrec,No,User,RGN Test,ON,No,1850,NA,NA,NA,NA,NA,NA,NA,NA"
"A14ATQ0J5B0VOX,Collector,1,243,2016-03-04T22:35:36-08:00,6,1,Stimuli/versionAstim.txt,Procedure/versionAproc.txt,Tetris,NA,EMERALD,,EMERALD,OFF,CI_AdHoc_G,183,seqrec,No,User,RGN Test,ON,No,3480,NA,NA,NA,NA,NA,NA,NA,NA"
"A14ATQ0J5B0VOX,Collector,1,244,2016-03-04T22:35:40-08:00,4,1,Stimuli/versionAstim.txt,Procedure/versionAproc.txt,Tetris,NA,CRYPT,,CRYPT,OFF,LI_Unrel_G,135,seqrec,No,User,RGN Test,ON,No,800,NA,NA,NA,NA,NA,NA,NA,NA"
"A14ATQ0J5B0VOX,Collector,1,245,2016-03-04T22:35:43-08:00,3,1,Stimuli/versionAstim.txt,Procedure/versionAproc.txt,Tetris,NA,ASH,,ASH,OFF,NPLI_AdHoc_G,258,seqrec,No,User,RGN Test,ON,No,1100,NA,NA,NA,NA,NA,NA,NA,NA"
"A14ATQ0J5B0VOX,Collector,1,246,2016-03-04T22:35:47-08:00,4,1,Stimuli/versionAstim.txt,Procedure/versionAproc.txt,Tetris,NA,MOVIE,,MOVIE,OFF,LI_Unrel_G,179,seqrec,No,User,RGN Test,ON,No,880,NA,NA,NA,NA,NA,NA,NA,NA"
"A14ATQ0J5B0VOX,Collector,1,247,2016-03-04T22:35:52-08:00,5,1,Stimuli/versionAstim.txt,Procedure/versionAproc.txt,Tetris,NA,AVOCADO,,AVOCADO,OFF,CI_AdHoc_G,184,seqrec,No,User,RGN Test,ON,No,1300,NA,NA,NA,NA,NA,NA,NA,NA"
"A14ATQ0J5B0VOX,Collector,1,248,2016-03-04T22:35:55-08:00,3,1,Stimuli/versionAstim.txt,Procedure/versionAproc.txt,Tetris,NA,TOMATO,,TOMATO,OFF,NPCI_Cat_G,279,seqrec,No,User,RGN Test,ON,No,800,NA,NA,NA,NA,NA,NA,NA,NA"
"A14ATQ0J5B0VOX,Collector,1,249,2016-03-04T22:36:00-08:00,5,1,Stimuli/versionAstim.txt,Procedure/versionAproc.txt,Tetris,NA,VINEGAR,,VINEGAR,OFF,NPLI_AdHoc_G,220,seqrec,No,User,RGN Test,ON,No,760,NA,NA,NA,NA,NA,NA,NA,NA"
"A14ATQ0J5B0VOX,Collector,1,250,2016-03-04T22:36:06-08:00,6,1,Stimuli/versionAstim.txt,Procedure/versionAproc.txt,Tetris,NA,ONION,,ONION,OFF,NPLI_Cat_G,227,seqrec,No,User,RGN Test,ON,No,2270,NA,NA,NA,NA,NA,NA,NA,NA"
"A14ATQ0J5B0VOX,Collector,1,251,2016-03-04T22:36:10-08:00,4,1,Stimuli/versionAstim.txt,Procedure/versionAproc.txt,Tetris,NA,CHAIN SAW,,CHAIN SAW,OFF,LI_AdHoc_G,154,seqrec,No,User,RGN Test,ON,Yes,1820,NA,NA,NA,NA,NA,NA,NA,NA"
"A14ATQ0J5B0VOX,Collector,1,252,2016-03-04T22:36:15-08:00,5,1,Stimuli/versionAstim.txt,Procedure/versionAproc.txt,Tetris,NA,CARROT,,CARROT,OFF,NPCI_Cat_G,281,seqrec,No,User,RGN Test,ON,No,1290,NA,NA,NA,NA,NA,NA,NA,NA"
"A14ATQ0J5B0VOX,Collector,1,253,2016-03-04T22:36:19-08:00,4,1,Stimuli/versionAstim.txt,Procedure/versionAproc.txt,Tetris,NA,TRACTOR,,TRACTOR,OFF,LI_AdHoc_G,156,seqrec,No,User,RGN Test,ON,Yes,1100,NA,NA,NA,NA,NA,NA,NA,NA"
"A14ATQ0J5B0VOX,Collector,1,254,2016-03-04T22:36:26-08:00,7,1,Stimuli/versionAstim.txt,Procedure/versionAproc.txt,Tetris,NA,PLANE,,PLANE,OFF,NPCI_Cat_G,299,seqrec,No,User,RGN Test,ON,No,3690,NA,NA,NA,NA,NA,NA,NA,NA"
"A14ATQ0J5B0VOX,Collector,1,255,2016-03-04T22:36:30-08:00,4,1,Stimuli/versionAstim.txt,Procedure/versionAproc.txt,Tetris,NA,LEVEL,,LEVEL,OFF,NPLI_Cat_G,262,seqrec,No,User,RGN Test,ON,No,860,NA,NA,NA,NA,NA,NA,NA,NA"
"A14ATQ0J5B0VOX,Collector,1,256,2016-03-04T22:36:34-08:00,4,1,Stimuli/versionAstim.txt,Procedure/versionAproc.txt,Tetris,NA,RUT,,RUT,OFF,NPLI_Unrel_G,249,seqrec,No,User,RGN Test,ON,No,860,NA,NA,NA,NA,NA,NA,NA,NA"
"A14ATQ0J5B0VOX,Collector,1,257,2016-03-04T22:36:38-08:00,4,1,Stimuli/versionAstim.txt,Procedure/versionAproc.txt,Tetris,NA,TIGER,,TIGER,OFF,CI_Cat_G,204,seqrec,No,User,RGN Test,ON,Yes,1690,NA,NA,NA,NA,NA,NA,NA,NA"
"A14ATQ0J5B0VOX,Collector,1,258,2016-03-04T22:36:41-08:00,3,1,Stimuli/versionAstim.txt,Procedure/versionAproc.txt,Tetris,NA,THUNDER,,THUNDER,OFF,CI_AdHoc_G,201,seqrec,No,User,RGN Test,ON,No,910,NA,NA,NA,NA,NA,NA,NA,NA"
"A14ATQ0J5B0VOX,Collector,1,259,2016-03-04T22:36:46-08:00,5,1,Stimuli/versionAstim.txt,Procedure/versionAproc.txt,Tetris,NA,PIG,,PIG,OFF,CI_Cat_G,205,seqrec,No,User,RGN Test,ON,No,970,NA,NA,NA,NA,NA,NA,NA,NA"
"A14ATQ0J5B0VOX,Collector,1,260,2016-03-04T22:36:49-08:00,3,1,Stimuli/versionAstim.txt,Procedure/versionAproc.txt,Tetris,NA,LAKE,,LAKE,OFF,NPLI_AdHoc_G,217,seqrec,No,User,RGN Test,ON,No,990,NA,NA,NA,NA,NA,NA,NA,NA"
"A14ATQ0J5B0VOX,Collector,1,261,2016-03-04T22:36:53-08:00,4,1,Stimuli/versionAstim.txt,Procedure/versionAproc.txt,Tetris,NA,ENGINE,,ENGINE,OFF,LI_Unrel_G,177,seqrec,No,User,RGN Test,ON,No,1650,NA,NA,NA,NA,NA,NA,NA,NA"
"A14ATQ0J5B0VOX,Collector,1,262,2016-03-04T22:36:58-08:00,5,1,Stimuli/versionAstim.txt,Procedure/versionAproc.txt,Tetris,NA,SHEEP,,SHEEP,OFF,LI_Cat_G,165,seqrec,No,User,RGN Test,ON,Yes,1660,NA,NA,NA,NA,NA,NA,NA,NA"
"A14ATQ0J5B0VOX,Collector,1,263,2016-03-04T22:37:03-08:00,5,1,Stimuli/versionAstim.txt,Procedure/versionAproc.txt,Tetris,NA,BADGE,,BADGE,OFF,LI_Unrel_G,132,seqrec,No,User,RGN Test,ON,Yes,1420,NA,NA,NA,NA,NA,NA,NA,NA"
"A14ATQ0J5B0VOX,Collector,1,264,2016-03-04T22:37:07-08:00,4,1,Stimuli/versionAstim.txt,Procedure/versionAproc.txt,Tetris,NA,JUNGLE,,JUNGLE,OFF,LI_AdHoc_G,126,seqrec,No,User,RGN Test,ON,Yes,990,NA,NA,NA,NA,NA,NA,NA,NA"
"A14ATQ0J5B0VOX,Collector,1,265,2016-03-04T22:37:13-08:00,6,1,Stimuli/versionAstim.txt,Procedure/versionAproc.txt,Tetris,NA,HAMMER,,HAMMER,OFF,NPCI_Cat_G,301,seqrec,No,User,RGN Test,ON,No,1260,NA,NA,NA,NA,NA,NA,NA,NA"
"A14ATQ0J5B0VOX,Collector,1,266,2016-03-04T22:37:17-08:00,4,1,Stimuli/versionAstim.txt,Procedure/versionAproc.txt,Tetris,NA,HOOK,,HOOK,OFF,LI_Unrel_G,134,seqrec,No,User,RGN Test,ON,Yes,1380,NA,NA,NA,NA,NA,NA,NA,NA"
"A14ATQ0J5B0VOX,Collector,1,267,2016-03-04T22:37:22-08:00,5,1,Stimuli/versionAstim.txt,Procedure/versionAproc.txt,Tetris,NA,SAWHORSE,,SAWHORSE,OFF,NPLI_Cat_G,265,seqrec,No,User,RGN Test,ON,No,2110,NA,NA,NA,NA,NA,NA,NA,NA"
"A14ATQ0J5B0VOX,Collector,1,268,2016-03-04T22:37:26-08:00,4,1,Stimuli/versionAstim.txt,Procedure/versionAproc.txt,Tetris,NA,MILK,,MILK,OFF,NPCI_AdHoc_G,276,seqrec,No,User,RGN Test,ON,No,1110,NA,NA,NA,NA,NA,NA,NA,NA"
"A14ATQ0J5B0VOX,Collector,1,269,2016-03-04T22:37:31-08:00,5,1,Stimuli/versionAstim.txt,Procedure/versionAproc.txt,Tetris,NA,HORSE,,HORSE,OFF,LI_Cat_G,162,seqrec,No,User,RGN Test,ON,Yes,1890,NA,NA,NA,NA,NA,NA,NA,NA"
"A14ATQ0J5B0VOX,Collector,1,270,2016-03-04T22:37:35-08:00,4,1,Stimuli/versionAstim.txt,Procedure/versionAproc.txt,Tetris,NA,MACHINE,,MACHINE,OFF,NPLI_Unrel_G,244,seqrec,No,User,RGN Test,ON,No,1150,NA,NA,NA,NA,NA,NA,NA,NA"
"A14ATQ0J5B0VOX,Collector,1,271,2016-03-04T22:37:40-08:00,5,1,Stimuli/versionAstim.txt,Procedure/versionAproc.txt,Tetris,NA,BUFFALO,,BUFFALO,OFF,LI_Cat_G,171,seqrec,No,User,RGN Test,ON,Yes,1170,NA,NA,NA,NA,NA,NA,NA,NA"
"A14ATQ0J5B0VOX,Collector,1,272,2016-03-04T22:37:45-08:00,5,1,Stimuli/versionAstim.txt,Procedure/versionAproc.txt,Tetris,NA,PLIERS,,PLIERS,OFF,NPCI_Cat_G,300,seqrec,No,User,RGN Test,ON,No,1220,NA,NA,NA,NA,NA,NA,NA,NA"
"A14ATQ0J5B0VOX,Collector,1,273,2016-03-04T22:37:48-08:00,3,1,Stimuli/versionAstim.txt,Procedure/versionAproc.txt,Tetris,NA,LICORICE,,LICORICE,OFF,NPLI_AdHoc_G,253,seqrec,No,User,RGN Test,ON,No,1240,NA,NA,NA,NA,NA,NA,NA,NA"
"A14ATQ0J5B0VOX,Collector,1,274,2016-03-04T22:37:54-08:00,6,1,Stimuli/versionAstim.txt,Procedure/versionAproc.txt,Tetris,NA,SNAKE,,SNAKE,OFF,LI_AdHoc_G,128,seqrec,No,User,RGN Test,ON,Yes,1190,NA,NA,NA,NA,NA,NA,NA,NA"
"A14ATQ0J5B0VOX,Collector,1,275,2016-03-04T22:37:59-08:00,5,1,Stimuli/versionAstim.txt,Procedure/versionAproc.txt,Tetris,NA,LEMON,,LEMON,OFF,CI_Cat_G,196,seqrec,No,User,RGN Test,ON,No,1830,NA,NA,NA,NA,NA,NA,NA,NA"
"A14ATQ0J5B0VOX,Collector,1,276,2016-03-04T22:38:03-08:00,4,1,Stimuli/versionAstim.txt,Procedure/versionAproc.txt,Tetris,NA,SUNRISE,,SUNRISE,OFF,LI_Unrel_G,181,seqrec,No,User,RGN Test,ON,No,1810,NA,NA,NA,NA,NA,NA,NA,NA"
"A14ATQ0J5B0VOX,Collector,1,277,2016-03-04T22:38:07-08:00,4,1,Stimuli/versionAstim.txt,Procedure/versionAproc.txt,Tetris,NA,FUR,,FUR,OFF,CI_Unrel_G,210,seqrec,No,User,RGN Test,ON,No,1270,NA,NA,NA,NA,NA,NA,NA,NA"
"A14ATQ0J5B0VOX,Collector,1,278,2016-03-04T22:38:12-08:00,5,1,Stimuli/versionAstim.txt,Procedure/versionAproc.txt,Tetris,NA,CAGE,,CAGE,OFF,CI_Unrel_G,207,seqrec,No,User,RGN Test,ON,No,1140,NA,NA,NA,NA,NA,NA,NA,NA"
"A14ATQ0J5B0VOX,Collector,1,279,2016-03-04T22:38:16-08:00,4,1,Stimuli/versionAstim.txt,Procedure/versionAproc.txt,Tetris,NA,DIAGRAM,,DIAGRAM,OFF,NPCI_Unrel_G,282,seqrec,No,User,RGN Test,ON,No,1050,NA,NA,NA,NA,NA,NA,NA,NA"
"A14ATQ0J5B0VOX,Collector,1,280,2016-03-04T22:38:20-08:00,4,1,Stimuli/versionAstim.txt,Procedure/versionAproc.txt,Tetris,NA,PAPERCLIP,,PAPERCLIP,OFF,NPLI_Unrel_G,239,seqrec,No,User,RGN Test,ON,No,1300,NA,NA,NA,NA,NA,NA,NA,NA"
"A14ATQ0J5B0VOX,Collector,1,281,2016-03-04T22:38:24-08:00,4,1,Stimuli/versionAstim.txt,Procedure/versionAproc.txt,Tetris,NA,SWEAT,,SWEAT,OFF,NPLI_AdHoc_G,214,seqrec,No,User,RGN Test,ON,No,1190,NA,NA,NA,NA,NA,NA,NA,NA"
"A14ATQ0J5B0VOX,Collector,1,282,2016-03-04T22:38:29-08:00,5,1,Stimuli/versionAstim.txt,Procedure/versionAproc.txt,Tetris,NA,YELL,,YELL,OFF,LI_AdHoc_G,152,seqrec,No,User,RGN Test,ON,Yes,1650,NA,NA,NA,NA,NA,NA,NA,NA"
"A14ATQ0J5B0VOX,Collector,1,283,2016-03-04T22:38:34-08:00,5,1,Stimuli/versionAstim.txt,Procedure/versionAproc.txt,Tetris,NA,PARTY,,PARTY,OFF,LI_AdHoc_G,158,seqrec,No,User,RGN Test,ON,Yes,1070,NA,NA,NA,NA,NA,NA,NA,NA"
"A14ATQ0J5B0VOX,Collector,1,284,2016-03-04T22:38:39-08:00,5,1,Stimuli/versionAstim.txt,Procedure/versionAproc.txt,Tetris,NA,NECTARINE,,NECTARINE,OFF,LI_Cat_G,150,seqrec,No,User,RGN Test,ON,Yes,1780,NA,NA,NA,NA,NA,NA,NA,NA"
"A14ATQ0J5B0VOX,Collector,1,285,2016-03-04T22:38:44-08:00,5,1,Stimuli/versionAstim.txt,Procedure/versionAproc.txt,Tetris,NA,POISON,,POISON,OFF,LI_Unrel_G,176,seqrec,No,User,RGN Test,ON,Yes,1160,NA,NA,NA,NA,NA,NA,NA,NA"
"A14ATQ0J5B0VOX,Collector,1,286,2016-03-04T22:38:51-08:00,7,1,Stimuli/versionAstim.txt,Procedure/versionAproc.txt,Tetris,NA,MANHOLE,,MANHOLE,OFF,LI_Unrel_G,141,seqrec,No,User,RGN Test,ON,Yes,1120,NA,NA,NA,NA,NA,NA,NA,NA"
"A14ATQ0J5B0VOX,Collector,1,287,2016-03-04T22:38:55-08:00,4,1,Stimuli/versionAstim.txt,Procedure/versionAproc.txt,Tetris,NA,DECK,,DECK,OFF,LI_Unrel_G,180,seqrec,No,User,RGN Test,ON,Yes,1420,NA,NA,NA,NA,NA,NA,NA,NA"
"A14ATQ0J5B0VOX,Collector,1,288,2016-03-04T22:39:01-08:00,6,1,Stimuli/versionAstim.txt,Procedure/versionAproc.txt,Tetris,NA,LIMOUSINE,,LIMOUSINE,OFF,NPLI_AdHoc_G,256,seqrec,No,User,RGN Test,ON,No,1980,NA,NA,NA,NA,NA,NA,NA,NA"
"A14ATQ0J5B0VOX,Collector,1,289,2016-03-04T22:39:06-08:00,5,1,Stimuli/versionAstim.txt,Procedure/versionAproc.txt,Tetris,NA,BELLS,,BELLS,OFF,LI_AdHoc_G,153,seqrec,No,User,RGN Test,ON,Yes,1080,NA,NA,NA,NA,NA,NA,NA,NA"
"A14ATQ0J5B0VOX,Collector,1,290,2016-03-04T22:39:10-08:00,4,1,Stimuli/versionAstim.txt,Procedure/versionAproc.txt,Tetris,NA,STADIUM,,STADIUM,OFF,LI_Unrel_G,174,seqrec,No,User,RGN Test,ON,No,1230,NA,NA,NA,NA,NA,NA,NA,NA"
"A14ATQ0J5B0VOX,Collector,1,291,2016-03-04T22:39:14-08:00,4,1,Stimuli/versionAstim.txt,Procedure/versionAproc.txt,Tetris,NA,PEPPERS,,PEPPERS,OFF,NPLI_Cat_G,229,seqrec,No,User,RGN Test,ON,No,1080,NA,NA,NA,NA,NA,NA,NA,NA"
"A14ATQ0J5B0VOX,Collector,1,292,2016-03-04T22:39:18-08:00,4,1,Stimuli/versionAstim.txt,Procedure/versionAproc.txt,Tetris,NA,MINT,,MINT,OFF,CI_AdHoc_G,186,seqrec,No,User,RGN Test,ON,No,1060,NA,NA,NA,NA,NA,NA,NA,NA"
"A14ATQ0J5B0VOX,Collector,1,293,2016-03-04T22:39:23-08:00,5,1,Stimuli/versionAstim.txt,Procedure/versionAproc.txt,Tetris,NA,SAND,,SAND,OFF,LI_Unrel_G,138,seqrec,No,User,RGN Test,ON,Yes,1230,NA,NA,NA,NA,NA,NA,NA,NA"
"A14ATQ0J5B0VOX,Collector,1,294,2016-03-04T22:39:28-08:00,5,1,Stimuli/versionAstim.txt,Procedure/versionAproc.txt,Tetris,NA,JUICE,,JUICE,OFF,NPCI_AdHoc_G,274,seqrec,No,User,RGN Test,ON,No,1480,NA,NA,NA,NA,NA,NA,NA,NA"
"A14ATQ0J5B0VOX,Collector,1,295,2016-03-04T22:39:33-08:00,5,1,Stimuli/versionAstim.txt,Procedure/versionAproc.txt,Tetris,NA,AIRPORT,,AIRPORT,OFF,NPLI_Unrel_G,247,seqrec,No,User,RGN Test,ON,No,1350,NA,NA,NA,NA,NA,NA,NA,NA"
"A14ATQ0J5B0VOX,Collector,1,296,2016-03-04T22:39:37-08:00,4,1,Stimuli/versionAstim.txt,Procedure/versionAproc.txt,Tetris,NA,ELEPHANT,,ELEPHANT,OFF,LI_Cat_G,163,seqrec,No,User,RGN Test,ON,Yes,1060,NA,NA,NA,NA,NA,NA,NA,NA"
"A14ATQ0J5B0VOX,Collector,1,297,2016-03-04T22:39:41-08:00,4,1,Stimuli/versionAstim.txt,Procedure/versionAproc.txt,Tetris,NA,PUPPY,,PUPPY,OFF,NPLI_Unrel_G,245,seqrec,No,User,RGN Test,ON,No,1030,NA,NA,NA,NA,NA,NA,NA,NA"
"A14ATQ0J5B0VOX,Collector,1,298,2016-03-04T22:39:46-08:00,5,1,Stimuli/versionAstim.txt,Procedure/versionAproc.txt,Tetris,NA,GOAT,,GOAT,OFF,LI_Cat_G,166,seqrec,No,User,RGN Test,ON,No,1230,NA,NA,NA,NA,NA,NA,NA,NA"
"A14ATQ0J5B0VOX,Collector,1,299,2016-03-04T22:39:52-08:00,6,1,Stimuli/versionAstim.txt,Procedure/versionAproc.txt,Tetris,NA,LAVA,,LAVA,OFF,NPLI_AdHoc_G,218,seqrec,No,User,RGN Test,ON,No,1310,NA,NA,NA,NA,NA,NA,NA,NA"
"A14ATQ0J5B0VOX,Collector,1,300,2016-03-04T22:39:57-08:00,5,1,Stimuli/versionAstim.txt,Procedure/versionAproc.txt,Tetris,NA,SPROUTS,,SPROUTS,OFF,LI_AdHoc_G,129,seqrec,No,User,RGN Test,ON,Yes,1170,NA,NA,NA,NA,NA,NA,NA,NA"
"A14ATQ0J5B0VOX,Collector,1,301,2016-03-04T22:40:01-08:00,4,1,Stimuli/versionAstim.txt,Procedure/versionAproc.txt,Tetris,NA,LENS,,LENS,OFF,NPCI_Unrel_G,291,seqrec,No,User,RGN Test,ON,No,1330,NA,NA,NA,NA,NA,NA,NA,NA"
"A14ATQ0J5B0VOX,Collector,1,302,2016-03-04T22:40:06-08:00,5,1,Stimuli/versionAstim.txt,Procedure/versionAproc.txt,Tetris,NA,WHITE,,WHITE,OFF,NPCI_Unrel_G,288,seqrec,No,User,RGN Test,ON,No,1160,NA,NA,NA,NA,NA,NA,NA,NA"
"A14ATQ0J5B0VOX,Collector,1,303,2016-03-04T22:40:09-08:00,3,1,Stimuli/versionAstim.txt,Procedure/versionAproc.txt,Tetris,NA,CANISTER,,CANISTER,OFF,NPLI_Unrel_G,238,seqrec,No,User,RGN Test,ON,No,980,NA,NA,NA,NA,NA,NA,NA,NA"
"A14ATQ0J5B0VOX,Collector,1,304,2016-03-04T22:40:13-08:00,4,1,Stimuli/versionAstim.txt,Procedure/versionAproc.txt,Tetris,NA,SODA,,SODA,OFF,NPLI_AdHoc_G,212,seqrec,No,User,RGN Test,ON,No,1000,NA,NA,NA,NA,NA,NA,NA,NA"
"A14ATQ0J5B0VOX,Collector,1,305,2016-03-04T22:40:17-08:00,4,1,Stimuli/versionAstim.txt,Procedure/versionAproc.txt,Tetris,NA,BOW,,BOW,OFF,CI_Unrel_G,188,seqrec,No,User,RGN Test,ON,No,1140,NA,NA,NA,NA,NA,NA,NA,NA"
"A14ATQ0J5B0VOX,Collector,1,306,2016-03-04T22:40:22-08:00,5,1,Stimuli/versionAstim.txt,Procedure/versionAproc.txt,Tetris,NA,PEA,,PEA,OFF,NPCI_Cat_G,277,seqrec,No,User,RGN Test,ON,No,1010,NA,NA,NA,NA,NA,NA,NA,NA"
"A14ATQ0J5B0VOX,Collector,1,307,2016-03-04T22:40:26-08:00,4,1,Stimuli/versionAstim.txt,Procedure/versionAproc.txt,Tetris,NA,FATHER,,FATHER,OFF,LI_Unrel_G,175,seqrec,No,User,RGN Test,ON,No,1210,NA,NA,NA,NA,NA,NA,NA,NA"
"A14ATQ0J5B0VOX,Collector,1,308,2016-03-04T22:40:31-08:00,5,1,Stimuli/versionAstim.txt,Procedure/versionAproc.txt,Tetris,NA,INK,,INK,OFF,NPLI_AdHoc_G,257,seqrec,No,User,RGN Test,ON,No,970,NA,NA,NA,NA,NA,NA,NA,NA"
"A14ATQ0J5B0VOX,Collector,1,309,2016-03-04T22:40:35-08:00,4,1,Stimuli/versionAstim.txt,Procedure/versionAproc.txt,Tetris,NA,ISLAND,,ISLAND,OFF,NPCI_Unrel_G,284,seqrec,No,User,RGN Test,ON,No,1260,NA,NA,NA,NA,NA,NA,NA,NA"
"A14ATQ0J5B0VOX,Collector,1,310,2016-03-04T22:40:40-08:00,5,1,Stimuli/versionAstim.txt,Procedure/versionAproc.txt,Tetris,NA,RAIN ,,RAIN ,OFF,NPCI_AdHoc_G,275,seqrec,No,User,RGN Test,ON,No,1320,NA,NA,NA,NA,NA,NA,NA,NA"
"A14ATQ0J5B0VOX,Collector,1,311,2016-03-04T22:40:46-08:00,6,1,Stimuli/versionAstim.txt,Procedure/versionAproc.txt,Tetris,NA,CREAM,,CREAM,OFF,NPLI_AdHoc_G,221,seqrec,No,User,RGN Test,ON,Yes,2640,NA,NA,NA,NA,NA,NA,NA,NA"
"A14ATQ0J5B0VOX,Collector,1,312,2016-03-04T22:40:49-08:00,3,1,Stimuli/versionAstim.txt,Procedure/versionAproc.txt,Tetris,NA,LAWNMOWER,,LAWNMOWER,OFF,CI_AdHoc_G,200,seqrec,No,User,RGN Test,ON,No,940,NA,NA,NA,NA,NA,NA,NA,NA"
"A14ATQ0J5B0VOX,Collector,1,313,2016-03-04T22:40:54-08:00,5,1,Stimuli/versionAstim.txt,Procedure/versionAproc.txt,Tetris,NA,AWL,,AWL,OFF,NPLI_Cat_G,267,seqrec,No,User,RGN Test,ON,No,1340,NA,NA,NA,NA,NA,NA,NA,NA"
"A14ATQ0J5B0VOX,Collector,1,314,2016-03-04T22:41:01-08:00,7,1,Stimuli/versionAstim.txt,Procedure/versionAproc.txt,Tetris,NA,PEAR,,PEAR,OFF,LI_Cat_G,142,seqrec,No,User,RGN Test,ON,Yes,3460,NA,NA,NA,NA,NA,NA,NA,NA"
"A14ATQ0J5B0VOX,Collector,1,315,2016-03-04T22:41:06-08:00,5,1,Stimuli/versionAstim.txt,Procedure/versionAproc.txt,Tetris,NA,EBONY,,EBONY,OFF,NPLI_AdHoc_G,261,seqrec,No,User,RGN Test,ON,No,1530,NA,NA,NA,NA,NA,NA,NA,NA"
"A14ATQ0J5B0VOX,Collector,1,316,2016-03-04T22:41:11-08:00,5,1,Stimuli/versionAstim.txt,Procedure/versionAproc.txt,Tetris,NA,COW,,COW,OFF,CI_Cat_G,203,seqrec,No,User,RGN Test,ON,Yes,2730,NA,NA,NA,NA,NA,NA,NA,NA"
"A14ATQ0J5B0VOX,Collector,1,317,2016-03-04T22:41:15-08:00,4,1,Stimuli/versionAstim.txt,Procedure/versionAproc.txt,Tetris,NA,GARAGE,,GARAGE,OFF,NPCI_Unrel_G,285,seqrec,No,User,RGN Test,ON,No,1000,NA,NA,NA,NA,NA,NA,NA,NA"
"A14ATQ0J5B0VOX,Collector,1,318,2016-03-04T22:41:20-08:00,5,1,Stimuli/versionAstim.txt,Procedure/versionAproc.txt,Tetris,NA,LIME,,LIME,OFF,LI_AdHoc_G,130,seqrec,No,User,RGN Test,ON,Yes,1440,NA,NA,NA,NA,NA,NA,NA,NA"
"A14ATQ0J5B0VOX,Collector,1,319,2016-03-04T22:41:24-08:00,4,1,Stimuli/versionAstim.txt,Procedure/versionAproc.txt,Tetris,NA,DRUMS,,DRUMS,OFF,LI_AdHoc_G,157,seqrec,No,User,RGN Test,ON,Yes,2040,NA,NA,NA,NA,NA,NA,NA,NA"
"A14ATQ0J5B0VOX,Collector,1,320,2016-03-04T22:41:30-08:00,6,1,Stimuli/versionAstim.txt,Procedure/versionAproc.txt,Tetris,NA,WRENCH,,WRENCH,OFF,NPLI_Cat_G,263,seqrec,No,User,RGN Test,ON,No,3340,NA,NA,NA,NA,NA,NA,NA,NA"
"A14ATQ0J5B0VOX,Collector,1,321,2016-03-04T22:41:36-08:00,6,1,Stimuli/versionAstim.txt,Procedure/versionAproc.txt,Tetris,NA,n/a,n/a,n/a,n/a,n/a,0,Instruct,N/A,User,Click the button below to continue.,OFF,,3510,NA,NA,NA,NA,NA,NA,NA,NA"
"A14ATQ0J5B0VOX,Collector,1,322,2016-03-04T22:41:57-08:00,21,1,Stimuli/versionAstim.txt,Procedure/versionAproc.txt,Tetris,NA,n/a,n/a,n/a,n/a,n/a,0,Instruct,N/A,User,You again will be presented with 6 lists of words, each containing 20 words, but now you will complete a recall memory test following each list. After each list is presented, you will type in the words you saw on that list into a dialog box. You will have 1 minute to recall each list. The computer will prompt you when your time is up. Click the button below to begin the first list.,OFF,,17070,NA,NA,NA,NA,NA,NA,NA,NA"
"A14ATQ0J5B0VOX,Collector,1,323,2016-03-04T22:42:02-08:00,5,1,Stimuli/versionAstim.txt,Procedure/versionAproc.txt,Tetris,NA,ROSEMARY,,ROSEMARY,OFF,Cat_Recall_L1,313,Study,No,3,Cat_Recall_L1,ON,,3000,NA,NA,NA,NA,NA,NA,NA,NA"
"A14ATQ0J5B0VOX,Collector,1,324,2016-03-04T22:42:08-08:00,6,1,Stimuli/versionAstim.txt,Procedure/versionAproc.txt,Tetris,NA,ONION SALT,,ONION SALT,OFF,Cat_Recall_L1,307,Study,No,3,Cat_Recall_L1,ON,,3000,NA,NA,NA,NA,NA,NA,NA,NA"
"A14ATQ0J5B0VOX,Collector,1,325,2016-03-04T22:42:14-08:00,6,1,Stimuli/versionAstim.txt,Procedure/versionAproc.txt,Tetris,NA,TURMERIC,,TURMERIC,OFF,Cat_Recall_L1,321,Study,No,3,Cat_Recall_L1,ON,,3000,NA,NA,NA,NA,NA,NA,NA,NA"
"A14ATQ0J5B0VOX,Collector,1,326,2016-03-04T22:42:19-08:00,5,1,Stimuli/versionAstim.txt,Procedure/versionAproc.txt,Tetris,NA,CELERY SEED,,CELERY SEED,OFF,Cat_Recall_L1,319,Study,No,3,Cat_Recall_L1,ON,,3000,NA,NA,NA,NA,NA,NA,NA,NA"
"A14ATQ0J5B0VOX,Collector,1,327,2016-03-04T22:42:25-08:00,6,1,Stimuli/versionAstim.txt,Procedure/versionAproc.txt,Tetris,NA,GINGER,,GINGER,OFF,Cat_Recall_L1,315,Study,No,3,Cat_Recall_L1,ON,,3000,NA,NA,NA,NA,NA,NA,NA,NA"
"A14ATQ0J5B0VOX,Collector,1,328,2016-03-04T22:42:31-08:00,6,1,Stimuli/versionAstim.txt,Procedure/versionAproc.txt,Tetris,NA,SUGAR,,SUGAR,OFF,Cat_Recall_L1,302,Study,No,3,Cat_Recall_L1,ON,,3000,NA,NA,NA,NA,NA,NA,NA,NA"
"A14ATQ0J5B0VOX,Collector,1,329,2016-03-04T22:42:40-08:00,9,1,Stimuli/versionAstim.txt,Procedure/versionAproc.txt,Tetris,NA,CLOVES,,CLOVES,OFF,Cat_Recall_L1,304,Study,No,3,Cat_Recall_L1,ON,,3000,NA,NA,NA,NA,NA,NA,NA,NA"
"A14ATQ0J5B0VOX,Collector,1,330,2016-03-04T22:42:46-08:00,6,1,Stimuli/versionAstim.txt,Procedure/versionAproc.txt,Tetris,NA,VANILLA,,VANILLA,OFF,Cat_Recall_L1,303,Study,No,3,Cat_Recall_L1,ON,,3000,NA,NA,NA,NA,NA,NA,NA,NA"
"A14ATQ0J5B0VOX,Collector,1,331,2016-03-04T22:42:52-08:00,6,1,Stimuli/versionAstim.txt,Procedure/versionAproc.txt,Tetris,NA,HORSERADISH,,HORSERADISH,OFF,Cat_Recall_L1,318,Study,No,3,Cat_Recall_L1,ON,,3000,NA,NA,NA,NA,NA,NA,NA,NA"
"A14ATQ0J5B0VOX,Collector,1,332,2016-03-04T22:42:58-08:00,6,1,Stimuli/versionAstim.txt,Procedure/versionAproc.txt,Tetris,NA,OREGANO,,OREGANO,OFF,Cat_Recall_L1,305,Study,No,3,Cat_Recall_L1,ON,,3000,NA,NA,NA,NA,NA,NA,NA,NA"
"A14ATQ0J5B0VOX,Collector,1,333,2016-03-04T22:43:03-08:00,5,1,Stimuli/versionAstim.txt,Procedure/versionAproc.txt,Tetris,NA,CHIVES,,CHIVES,OFF,Cat_Recall_L1,314,Study,No,3,Cat_Recall_L1,ON,,3000,NA,NA,NA,NA,NA,NA,NA,NA"
"A14ATQ0J5B0VOX,Collector,1,334,2016-03-04T22:43:09-08:00,6,1,Stimuli/versionAstim.txt,Procedure/versionAproc.txt,Tetris,NA,NUTMEG,,NUTMEG,OFF,Cat_Recall_L1,306,Study,No,3,Cat_Recall_L1,ON,,3000,NA,NA,NA,NA,NA,NA,NA,NA"
"A14ATQ0J5B0VOX,Collector,1,335,2016-03-04T22:43:15-08:00,6,1,Stimuli/versionAstim.txt,Procedure/versionAproc.txt,Tetris,NA,CHILI POWDER,,CHILI POWDER,OFF,Cat_Recall_L1,317,Study,No,3,Cat_Recall_L1,ON,,3000,NA,NA,NA,NA,NA,NA,NA,NA"
"A14ATQ0J5B0VOX,Collector,1,336,2016-03-04T22:43:21-08:00,6,1,Stimuli/versionAstim.txt,Procedure/versionAproc.txt,Tetris,NA,BAY LEAVES,,BAY LEAVES,OFF,Cat_Recall_L1,309,Study,No,3,Cat_Recall_L1,ON,,3000,NA,NA,NA,NA,NA,NA,NA,NA"
"A14ATQ0J5B0VOX,Collector,1,337,2016-03-04T22:43:26-08:00,5,1,Stimuli/versionAstim.txt,Procedure/versionAproc.txt,Tetris,NA,THYME,,THYME,OFF,Cat_Recall_L1,308,Study,No,3,Cat_Recall_L1,ON,,3000,NA,NA,NA,NA,NA,NA,NA,NA"
"A14ATQ0J5B0VOX,Collector,1,338,2016-03-04T22:43:32-08:00,6,1,Stimuli/versionAstim.txt,Procedure/versionAproc.txt,Tetris,NA,CURRY,,CURRY,OFF,Cat_Recall_L1,311,Study,No,3,Cat_Recall_L1,ON,,3000,NA,NA,NA,NA,NA,NA,NA,NA"
"A14ATQ0J5B0VOX,Collector,1,339,2016-03-04T22:43:38-08:00,6,1,Stimuli/versionAstim.txt,Procedure/versionAproc.txt,Tetris,NA,ALMOND,,ALMOND,OFF,Cat_Recall_L1,310,Study,No,3,Cat_Recall_L1,ON,,3000,NA,NA,NA,NA,NA,NA,NA,NA"
"A14ATQ0J5B0VOX,Collector,1,340,2016-03-04T22:43:45-08:00,7,1,Stimuli/versionAstim.txt,Procedure/versionAproc.txt,Tetris,NA,BASIL,,BASIL,OFF,Cat_Recall_L1,320,Study,No,3,Cat_Recall_L1,ON,,3000,NA,NA,NA,NA,NA,NA,NA,NA"
"A14ATQ0J5B0VOX,Collector,1,341,2016-03-04T22:43:50-08:00,5,1,Stimuli/versionAstim.txt,Procedure/versionAproc.txt,Tetris,NA,CUMIN,,CUMIN,OFF,Cat_Recall_L1,316,Study,No,3,Cat_Recall_L1,ON,,3000,NA,NA,NA,NA,NA,NA,NA,NA"
"A14ATQ0J5B0VOX,Collector,1,342,2016-03-04T22:43:56-08:00,6,1,Stimuli/versionAstim.txt,Procedure/versionAproc.txt,Tetris,NA,SAGE,,SAGE,OFF,Cat_Recall_L1,312,Study,No,3,Cat_Recall_L1,ON,,3000,NA,NA,NA,NA,NA,NA,NA,NA"
"A14ATQ0J5B0VOX,Collector,1,343,2016-03-04T22:44:04-08:00,8,1,Stimuli/versionAstim.txt,Procedure/versionAproc.txt,Tetris,NA,n/a,n/a,n/a,n/a,n/a,0,Instruct,N/A,User,Recall Instructions: Recall the words that you saw by typing them into the dialog box on the next screen. You will have 1 minute. Click the button below to begin.,OFF,,5660,NA,NA,NA,NA,NA,NA,NA,NA"
"A14ATQ0J5B0VOX,Collector,1,344,2016-03-04T22:45:07-08:00,63,1,Stimuli/versionAstim.txt,Procedure/versionAproc.txt,Tetris,NA,n/a,n/a,n/a,n/a,n/a,0,freerecall,N/A,60,Recall now in the box. Spelling will not be counted against you. The computer will advance when your minute is up.,OFF,ROSEMARY <br />  <br /> ONION SALT <br />  <br /> CHILLI POWDER <br />  <br /> GINGER <br />  <br /> GLOVES <br />  <br /> BAY LEAVES <br />  <br /> CURRY <br />  <br /> ,60000,3150,32770,NA,NA,NA,NA,NA,NA"
"A14ATQ0J5B0VOX,Collector,1,345,2016-03-04T22:45:12-08:00,5,1,Stimuli/versionAstim.txt,Procedure/versionAproc.txt,Tetris,NA,n/a,n/a,n/a,n/a,n/a,0,Instruct,N/A,User,Click the button below for the next list.,OFF,,2440,NA,NA,NA,NA,NA,NA,NA,NA"
"A14ATQ0J5B0VOX,Collector,1,346,2016-03-04T22:45:18-08:00,6,1,Stimuli/versionAstim.txt,Procedure/versionAproc.txt,Tetris,NA,HURRICANE,,HURRICANE,OFF,AdHoc_Recall_L2,336,Study,No,3,AdHoc_Recall_L2,ON,,3000,NA,NA,NA,NA,NA,NA,NA,NA"
"A14ATQ0J5B0VOX,Collector,1,347,2016-03-04T22:45:24-08:00,6,1,Stimuli/versionAstim.txt,Procedure/versionAproc.txt,Tetris,NA,GYROSCOPE,,GYROSCOPE,OFF,AdHoc_Recall_L2,331,Study,No,3,AdHoc_Recall_L2,ON,,3000,NA,NA,NA,NA,NA,NA,NA,NA"
"A14ATQ0J5B0VOX,Collector,1,348,2016-03-04T22:45:30-08:00,6,1,Stimuli/versionAstim.txt,Procedure/versionAproc.txt,Tetris,NA,TORNADO,,TORNADO,OFF,AdHoc_Recall_L2,335,Study,No,3,AdHoc_Recall_L2,ON,,3000,NA,NA,NA,NA,NA,NA,NA,NA"
"A14ATQ0J5B0VOX,Collector,1,349,2016-03-04T22:45:35-08:00,5,1,Stimuli/versionAstim.txt,Procedure/versionAproc.txt,Tetris,NA,SATELLITE,,SATELLITE,OFF,AdHoc_Recall_L2,323,Study,No,3,AdHoc_Recall_L2,ON,,3000,NA,NA,NA,NA,NA,NA,NA,NA"
"A14ATQ0J5B0VOX,Collector,1,350,2016-03-04T22:45:41-08:00,6,1,Stimuli/versionAstim.txt,Procedure/versionAproc.txt,Tetris,NA,WINDMILL,,WINDMILL,OFF,AdHoc_Recall_L2,339,Study,No,3,AdHoc_Recall_L2,ON,,3000,NA,NA,NA,NA,NA,NA,NA,NA"
"A14ATQ0J5B0VOX,Collector,1,351,2016-03-04T22:45:47-08:00,6,1,Stimuli/versionAstim.txt,Procedure/versionAproc.txt,Tetris,NA,SPOOL,,SPOOL,OFF,AdHoc_Recall_L2,334,Study,No,3,AdHoc_Recall_L2,ON,,3000,NA,NA,NA,NA,NA,NA,NA,NA"
"A14ATQ0J5B0VOX,Collector,1,352,2016-03-04T22:45:53-08:00,6,1,Stimuli/versionAstim.txt,Procedure/versionAproc.txt,Tetris,NA,RECORD,,RECORD,OFF,AdHoc_Recall_L2,332,Study,No,3,AdHoc_Recall_L2,ON,,3000,NA,NA,NA,NA,NA,NA,NA,NA"
"A14ATQ0J5B0VOX,Collector,1,353,2016-03-04T22:45:58-08:00,5,1,Stimuli/versionAstim.txt,Procedure/versionAproc.txt,Tetris,NA,BOTTLE,,BOTTLE,OFF,AdHoc_Recall_L2,324,Study,No,3,AdHoc_Recall_L2,ON,,3000,NA,NA,NA,NA,NA,NA,NA,NA"
"A14ATQ0J5B0VOX,Collector,1,354,2016-03-04T22:46:04-08:00,6,1,Stimuli/versionAstim.txt,Procedure/versionAproc.txt,Tetris,NA,SPHERE,,SPHERE,OFF,AdHoc_Recall_L2,327,Study,No,3,AdHoc_Recall_L2,ON,,3000,NA,NA,NA,NA,NA,NA,NA,NA"
"A14ATQ0J5B0VOX,Collector,1,355,2016-03-04T22:46:10-08:00,6,1,Stimuli/versionAstim.txt,Procedure/versionAproc.txt,Tetris,NA,PROPELLER,,PROPELLER,OFF,AdHoc_Recall_L2,322,Study,No,3,AdHoc_Recall_L2,ON,,3000,NA,NA,NA,NA,NA,NA,NA,NA"
"A14ATQ0J5B0VOX,Collector,1,356,2016-03-04T22:46:16-08:00,6,1,Stimuli/versionAstim.txt,Procedure/versionAproc.txt,Tetris,NA,SPIRAL,,SPIRAL,OFF,AdHoc_Recall_L2,337,Study,No,3,AdHoc_Recall_L2,ON,,3000,NA,NA,NA,NA,NA,NA,NA,NA"
"A14ATQ0J5B0VOX,Collector,1,357,2016-03-04T22:46:22-08:00,6,1,Stimuli/versionAstim.txt,Procedure/versionAproc.txt,Tetris,NA,GEAR,,GEAR,OFF,AdHoc_Recall_L2,329,Study,No,3,AdHoc_Recall_L2,ON,,3000,NA,NA,NA,NA,NA,NA,NA,NA"
"A14ATQ0J5B0VOX,Collector,1,358,2016-03-04T22:46:28-08:00,6,1,Stimuli/versionAstim.txt,Procedure/versionAproc.txt,Tetris,NA,BICYCLE,,BICYCLE,OFF,AdHoc_Recall_L2,333,Study,No,3,AdHoc_Recall_L2,ON,,3000,NA,NA,NA,NA,NA,NA,NA,NA"
"A14ATQ0J5B0VOX,Collector,1,359,2016-03-04T22:46:33-08:00,5,1,Stimuli/versionAstim.txt,Procedure/versionAproc.txt,Tetris,NA,ORB,,ORB,OFF,AdHoc_Recall_L2,328,Study,No,3,AdHoc_Recall_L2,ON,,3000,NA,NA,NA,NA,NA,NA,NA,NA"
"A14ATQ0J5B0VOX,Collector,1,360,2016-03-04T22:46:39-08:00,6,1,Stimuli/versionAstim.txt,Procedure/versionAproc.txt,Tetris,NA,PINWHEEL,,PINWHEEL,OFF,AdHoc_Recall_L2,338,Study,No,3,AdHoc_Recall_L2,ON,,3000,NA,NA,NA,NA,NA,NA,NA,NA"
"A14ATQ0J5B0VOX,Collector,1,361,2016-03-04T22:46:45-08:00,6,1,Stimuli/versionAstim.txt,Procedure/versionAproc.txt,Tetris,NA,ROTISSERIE,,ROTISSERIE,OFF,AdHoc_Recall_L2,340,Study,No,3,AdHoc_Recall_L2,ON,,3000,NA,NA,NA,NA,NA,NA,NA,NA"
"A14ATQ0J5B0VOX,Collector,1,362,2016-03-04T22:46:51-08:00,6,1,Stimuli/versionAstim.txt,Procedure/versionAproc.txt,Tetris,NA,DREIDEL,,DREIDEL,OFF,AdHoc_Recall_L2,325,Study,No,3,AdHoc_Recall_L2,ON,,3000,NA,NA,NA,NA,NA,NA,NA,NA"
"A14ATQ0J5B0VOX,Collector,1,363,2016-03-04T22:46:56-08:00,5,1,Stimuli/versionAstim.txt,Procedure/versionAproc.txt,Tetris,NA,TOP,,TOP,OFF,AdHoc_Recall_L2,326,Study,No,3,AdHoc_Recall_L2,ON,,3000,NA,NA,NA,NA,NA,NA,NA,NA"
"A14ATQ0J5B0VOX,Collector,1,364,2016-03-04T22:47:02-08:00,6,1,Stimuli/versionAstim.txt,Procedure/versionAproc.txt,Tetris,NA,ROULETTE,,ROULETTE,OFF,AdHoc_Recall_L2,330,Study,No,3,AdHoc_Recall_L2,ON,,3000,NA,NA,NA,NA,NA,NA,NA,NA"
"A14ATQ0J5B0VOX,Collector,1,365,2016-03-04T22:47:08-08:00,6,1,Stimuli/versionAstim.txt,Procedure/versionAproc.txt,Tetris,NA,YO-YO,,YO-YO,OFF,AdHoc_Recall_L2,341,Study,No,3,AdHoc_Recall_L2,ON,,3000,NA,NA,NA,NA,NA,NA,NA,NA"
"A14ATQ0J5B0VOX,Collector,1,366,2016-03-04T22:47:14-08:00,6,1,Stimuli/versionAstim.txt,Procedure/versionAproc.txt,Tetris,NA,n/a,n/a,n/a,n/a,n/a,0,Instruct,N/A,User,Recall Instructions: Recall the words that you saw by typing them into the dialog box on the next screen. You will have 1 minute. Click the button below to begin.,OFF,,3440,NA,NA,NA,NA,NA,NA,NA,NA"
"A14ATQ0J5B0VOX,Collector,1,367,2016-03-04T22:48:17-08:00,63,1,Stimuli/versionAstim.txt,Procedure/versionAproc.txt,Tetris,NA,n/a,n/a,n/a,n/a,n/a,0,freerecall,N/A,60,Recall now in the box. Spelling will not be counted against you. The computer will advance when your minute is up.,OFF,ROULETTE <br />  <br /> YO-YO <br />  <br /> HURRICANE <br />  <br /> BOTTLE <br />  <br /> TORNADO <br />  <br /> SATELLITE <br />  <br /> ORB <br />  <br /> TOP <br />  <br /> GYROSCOPE <br />  <br /> RECORD <br />  <br /> ,60000,1120,34780,NA,NA,NA,NA,NA,NA"
"A14ATQ0J5B0VOX,Collector,1,368,2016-03-04T22:48:21-08:00,4,1,Stimuli/versionAstim.txt,Procedure/versionAproc.txt,Tetris,NA,n/a,n/a,n/a,n/a,n/a,0,Instruct,N/A,User,Click the button below for the next list.,OFF,,1150,NA,NA,NA,NA,NA,NA,NA,NA"
"A14ATQ0J5B0VOX,Collector,1,369,2016-03-04T22:48:27-08:00,6,1,Stimuli/versionAstim.txt,Procedure/versionAproc.txt,Tetris,NA,HERMIT,,HERMIT,OFF,Unrel_Recall_L3,351,Study,No,3,Unrel_Recall_L3,ON,,3000,NA,NA,NA,NA,NA,NA,NA,NA"
"A14ATQ0J5B0VOX,Collector,1,370,2016-03-04T22:48:33-08:00,6,1,Stimuli/versionAstim.txt,Procedure/versionAproc.txt,Tetris,NA,ACRE,,ACRE,OFF,Unrel_Recall_L3,352,Study,No,3,Unrel_Recall_L3,ON,,3000,NA,NA,NA,NA,NA,NA,NA,NA"
"A14ATQ0J5B0VOX,Collector,1,371,2016-03-04T22:48:39-08:00,6,1,Stimuli/versionAstim.txt,Procedure/versionAproc.txt,Tetris,NA,EPISODE,,EPISODE,OFF,Unrel_Recall_L3,349,Study,No,3,Unrel_Recall_L3,ON,,3000,NA,NA,NA,NA,NA,NA,NA,NA"
"A14ATQ0J5B0VOX,Collector,1,372,2016-03-04T22:48:44-08:00,5,1,Stimuli/versionAstim.txt,Procedure/versionAproc.txt,Tetris,NA,DEBT,,DEBT,OFF,Unrel_Recall_L3,343,Study,No,3,Unrel_Recall_L3,ON,,3000,NA,NA,NA,NA,NA,NA,NA,NA"
"A14ATQ0J5B0VOX,Collector,1,373,2016-03-04T22:48:50-08:00,6,1,Stimuli/versionAstim.txt,Procedure/versionAproc.txt,Tetris,NA,MANUAL,,MANUAL,OFF,Unrel_Recall_L3,357,Study,No,3,Unrel_Recall_L3,ON,,3000,NA,NA,NA,NA,NA,NA,NA,NA"
"A14ATQ0J5B0VOX,Collector,1,374,2016-03-04T22:48:56-08:00,6,1,Stimuli/versionAstim.txt,Procedure/versionAproc.txt,Tetris,NA,WAX,,WAX,OFF,Unrel_Recall_L3,342,Study,No,3,Unrel_Recall_L3,ON,,3000,NA,NA,NA,NA,NA,NA,NA,NA"
"A14ATQ0J5B0VOX,Collector,1,375,2016-03-04T22:49:02-08:00,6,1,Stimuli/versionAstim.txt,Procedure/versionAproc.txt,Tetris,NA,DESERT,,DESERT,OFF,Unrel_Recall_L3,347,Study,No,3,Unrel_Recall_L3,ON,,3000,NA,NA,NA,NA,NA,NA,NA,NA"
"A14ATQ0J5B0VOX,Collector,1,376,2016-03-04T22:49:10-08:00,8,1,Stimuli/versionAstim.txt,Procedure/versionAproc.txt,Tetris,NA,JAM,,JAM,OFF,Unrel_Recall_L3,354,Study,No,3,Unrel_Recall_L3,ON,,3000,NA,NA,NA,NA,NA,NA,NA,NA"
"A14ATQ0J5B0VOX,Collector,1,377,2016-03-04T22:49:16-08:00,6,1,Stimuli/versionAstim.txt,Procedure/versionAproc.txt,Tetris,NA,ORPHAN,,ORPHAN,OFF,Unrel_Recall_L3,355,Study,No,3,Unrel_Recall_L3,ON,,3000,NA,NA,NA,NA,NA,NA,NA,NA"
"A14ATQ0J5B0VOX,Collector,1,378,2016-03-04T22:49:21-08:00,5,1,Stimuli/versionAstim.txt,Procedure/versionAproc.txt,Tetris,NA,EMPRESS,,EMPRESS,OFF,Unrel_Recall_L3,344,Study,No,3,Unrel_Recall_L3,ON,,3000,NA,NA,NA,NA,NA,NA,NA,NA"
"A14ATQ0J5B0VOX,Collector,1,379,2016-03-04T22:49:27-08:00,6,1,Stimuli/versionAstim.txt,Procedure/versionAproc.txt,Tetris,NA,METEOR,,METEOR,OFF,Unrel_Recall_L3,356,Study,No,3,Unrel_Recall_L3,ON,,3000,NA,NA,NA,NA,NA,NA,NA,NA"
"A14ATQ0J5B0VOX,Collector,1,380,2016-03-04T22:49:34-08:00,7,1,Stimuli/versionAstim.txt,Procedure/versionAproc.txt,Tetris,NA,KEG,,KEG,OFF,Unrel_Recall_L3,358,Study,No,3,Unrel_Recall_L3,ON,,3000,NA,NA,NA,NA,NA,NA,NA,NA"
"A14ATQ0J5B0VOX,Collector,1,381,2016-03-04T22:49:41-08:00,7,1,Stimuli/versionAstim.txt,Procedure/versionAproc.txt,Tetris,NA,INDEX,,INDEX,OFF,Unrel_Recall_L3,360,Study,No,3,Unrel_Recall_L3,ON,,3000,NA,NA,NA,NA,NA,NA,NA,NA"
"A14ATQ0J5B0VOX,Collector,1,382,2016-03-04T22:49:47-08:00,6,1,Stimuli/versionAstim.txt,Procedure/versionAproc.txt,Tetris,NA,WHALE,,WHALE,OFF,Unrel_Recall_L3,353,Study,No,3,Unrel_Recall_L3,ON,,3000,NA,NA,NA,NA,NA,NA,NA,NA"
"A14ATQ0J5B0VOX,Collector,1,383,2016-03-04T22:49:54-08:00,7,1,Stimuli/versionAstim.txt,Procedure/versionAproc.txt,Tetris,NA,CANDY,,CANDY,OFF,Unrel_Recall_L3,348,Study,No,3,Unrel_Recall_L3,ON,,3000,NA,NA,NA,NA,NA,NA,NA,NA"
"A14ATQ0J5B0VOX,Collector,1,384,2016-03-04T22:50:01-08:00,7,1,Stimuli/versionAstim.txt,Procedure/versionAproc.txt,Tetris,NA,HARVEST,,HARVEST,OFF,Unrel_Recall_L3,359,Study,No,3,Unrel_Recall_L3,ON,,3000,NA,NA,NA,NA,NA,NA,NA,NA"
"A14ATQ0J5B0VOX,Collector,1,385,2016-03-04T22:50:07-08:00,6,1,Stimuli/versionAstim.txt,Procedure/versionAproc.txt,Tetris,NA,BISHOP,,BISHOP,OFF,Unrel_Recall_L3,350,Study,No,3,Unrel_Recall_L3,ON,,3000,NA,NA,NA,NA,NA,NA,NA,NA"
"A14ATQ0J5B0VOX,Collector,1,386,2016-03-04T22:50:13-08:00,6,1,Stimuli/versionAstim.txt,Procedure/versionAproc.txt,Tetris,NA,CANTEEN,,CANTEEN,OFF,Unrel_Recall_L3,361,Study,No,3,Unrel_Recall_L3,ON,,3000,NA,NA,NA,NA,NA,NA,NA,NA"
"A14ATQ0J5B0VOX,Collector,1,387,2016-03-04T22:50:19-08:00,6,1,Stimuli/versionAstim.txt,Procedure/versionAproc.txt,Tetris,NA,HELMET,,HELMET,OFF,Unrel_Recall_L3,346,Study,No,3,Unrel_Recall_L3,ON,,3000,NA,NA,NA,NA,NA,NA,NA,NA"
"A14ATQ0J5B0VOX,Collector,1,388,2016-03-04T22:50:25-08:00,6,1,Stimuli/versionAstim.txt,Procedure/versionAproc.txt,Tetris,NA,LANTERN,,LANTERN,OFF,Unrel_Recall_L3,345,Study,No,3,Unrel_Recall_L3,ON,,3000,NA,NA,NA,NA,NA,NA,NA,NA"
"A14ATQ0J5B0VOX,Collector,1,389,2016-03-04T22:50:30-08:00,5,1,Stimuli/versionAstim.txt,Procedure/versionAproc.txt,Tetris,NA,n/a,n/a,n/a,n/a,n/a,0,Instruct,N/A,User,Recall Instructions: Recall the words that you saw by typing them into the dialog box on the next screen. You will have 1 minute. Click the button below to begin.,OFF,,2240,NA,NA,NA,NA,NA,NA,NA,NA"
"A14ATQ0J5B0VOX,Collector,1,390,2016-03-04T22:51:36-08:00,66,1,Stimuli/versionAstim.txt,Procedure/versionAproc.txt,Tetris,NA,n/a,n/a,n/a,n/a,n/a,0,freerecall,N/A,60,Recall now in the box. Spelling will not be counted against you. The computer will advance when your minute is up.,OFF,HERMIT <br />  <br /> HARVEST <br />  <br /> BISHOP <br />  <br /> JAM <br />  <br /> KEG <br />  <br /> LANTERN <br />  <br /> CANDY <br />  <br /> DESSERT <br />  <br /> MANUAL <br />  <br /> HELMET <br />  <br />  <br />  <br /> ,60000,1280,50220,NA,NA,NA,NA,NA,NA"
"A14ATQ0J5B0VOX,Collector,1,391,2016-03-04T22:51:40-08:00,4,1,Stimuli/versionAstim.txt,Procedure/versionAproc.txt,Tetris,NA,n/a,n/a,n/a,n/a,n/a,0,Instruct,N/A,User,Click the button below for the next list.,OFF,,1920,NA,NA,NA,NA,NA,NA,NA,NA"
"A14ATQ0J5B0VOX,Collector,1,392,2016-03-04T22:51:46-08:00,6,1,Stimuli/versionAstim.txt,Procedure/versionAproc.txt,Tetris,NA,INFANT,,INFANT,OFF,Unrel_Recall_L4,369,Study,No,3,Unrel_Recall_L4,ON,,3000,NA,NA,NA,NA,NA,NA,NA,NA"
"A14ATQ0J5B0VOX,Collector,1,393,2016-03-04T22:51:52-08:00,6,1,Stimuli/versionAstim.txt,Procedure/versionAproc.txt,Tetris,NA,ANGEL,,ANGEL,OFF,Unrel_Recall_L4,364,Study,No,3,Unrel_Recall_L4,ON,,3000,NA,NA,NA,NA,NA,NA,NA,NA"
"A14ATQ0J5B0VOX,Collector,1,394,2016-03-04T22:51:57-08:00,5,1,Stimuli/versionAstim.txt,Procedure/versionAproc.txt,Tetris,NA,SOLAR,,SOLAR,OFF,Unrel_Recall_L4,366,Study,No,3,Unrel_Recall_L4,ON,,3000,NA,NA,NA,NA,NA,NA,NA,NA"
"A14ATQ0J5B0VOX,Collector,1,395,2016-03-04T22:52:03-08:00,6,1,Stimuli/versionAstim.txt,Procedure/versionAproc.txt,Tetris,NA,CANON,,CANON,OFF,Unrel_Recall_L4,368,Study,No,3,Unrel_Recall_L4,ON,,3000,NA,NA,NA,NA,NA,NA,NA,NA"
"A14ATQ0J5B0VOX,Collector,1,396,2016-03-04T22:52:09-08:00,6,1,Stimuli/versionAstim.txt,Procedure/versionAproc.txt,Tetris,NA,FARM,,FARM,OFF,Unrel_Recall_L4,374,Study,No,3,Unrel_Recall_L4,ON,,3000,NA,NA,NA,NA,NA,NA,NA,NA"
"A14ATQ0J5B0VOX,Collector,1,397,2016-03-04T22:52:16-08:00,7,1,Stimuli/versionAstim.txt,Procedure/versionAproc.txt,Tetris,NA,NUGGET,,NUGGET,OFF,Unrel_Recall_L4,370,Study,No,3,Unrel_Recall_L4,ON,,3000,NA,NA,NA,NA,NA,NA,NA,NA"
"A14ATQ0J5B0VOX,Collector,1,398,2016-03-04T22:52:22-08:00,6,1,Stimuli/versionAstim.txt,Procedure/versionAproc.txt,Tetris,NA,PINT,,PINT,OFF,Unrel_Recall_L4,373,Study,No,3,Unrel_Recall_L4,ON,,3000,NA,NA,NA,NA,NA,NA,NA,NA"
"A14ATQ0J5B0VOX,Collector,1,399,2016-03-04T22:52:28-08:00,6,1,Stimuli/versionAstim.txt,Procedure/versionAproc.txt,Tetris,NA,FUNK,,FUNK,OFF,Unrel_Recall_L4,372,Study,No,3,Unrel_Recall_L4,ON,,3000,NA,NA,NA,NA,NA,NA,NA,NA"
"A14ATQ0J5B0VOX,Collector,1,400,2016-03-04T22:52:33-08:00,5,1,Stimuli/versionAstim.txt,Procedure/versionAproc.txt,Tetris,NA,MATH,,MATH,OFF,Unrel_Recall_L4,376,Study,No,3,Unrel_Recall_L4,ON,,3000,NA,NA,NA,NA,NA,NA,NA,NA"
"A14ATQ0J5B0VOX,Collector,1,401,2016-03-04T22:52:39-08:00,6,1,Stimuli/versionAstim.txt,Procedure/versionAproc.txt,Tetris,NA,CREST,,CREST,OFF,Unrel_Recall_L4,377,Study,No,3,Unrel_Recall_L4,ON,,3000,NA,NA,NA,NA,NA,NA,NA,NA"
"A14ATQ0J5B0VOX,Collector,1,402,2016-03-04T22:52:45-08:00,6,1,Stimuli/versionAstim.txt,Procedure/versionAproc.txt,Tetris,NA,VALVE,,VALVE,OFF,Unrel_Recall_L4,367,Study,No,3,Unrel_Recall_L4,ON,,3000,NA,NA,NA,NA,NA,NA,NA,NA"
"A14ATQ0J5B0VOX,Collector,1,403,2016-03-04T22:52:51-08:00,6,1,Stimuli/versionAstim.txt,Procedure/versionAproc.txt,Tetris,NA,QUICHE,,QUICHE,OFF,Unrel_Recall_L4,363,Study,No,3,Unrel_Recall_L4,ON,,3000,NA,NA,NA,NA,NA,NA,NA,NA"
"A14ATQ0J5B0VOX,Collector,1,404,2016-03-04T22:52:58-08:00,7,1,Stimuli/versionAstim.txt,Procedure/versionAproc.txt,Tetris,NA,VAPOR,,VAPOR,OFF,Unrel_Recall_L4,375,Study,No,3,Unrel_Recall_L4,ON,,3000,NA,NA,NA,NA,NA,NA,NA,NA"
"A14ATQ0J5B0VOX,Collector,1,405,2016-03-04T22:53:04-08:00,6,1,Stimuli/versionAstim.txt,Procedure/versionAproc.txt,Tetris,NA,CANOE,,CANOE,OFF,Unrel_Recall_L4,362,Study,No,3,Unrel_Recall_L4,ON,,3000,NA,NA,NA,NA,NA,NA,NA,NA"
"A14ATQ0J5B0VOX,Collector,1,406,2016-03-04T22:53:10-08:00,6,1,Stimuli/versionAstim.txt,Procedure/versionAproc.txt,Tetris,NA,CANE,,CANE,OFF,Unrel_Recall_L4,378,Study,No,3,Unrel_Recall_L4,ON,,3000,NA,NA,NA,NA,NA,NA,NA,NA"
"A14ATQ0J5B0VOX,Collector,1,407,2016-03-04T22:53:16-08:00,6,1,Stimuli/versionAstim.txt,Procedure/versionAproc.txt,Tetris,NA,KEROSENE,,KEROSENE,OFF,Unrel_Recall_L4,371,Study,No,3,Unrel_Recall_L4,ON,,3000,NA,NA,NA,NA,NA,NA,NA,NA"
"A14ATQ0J5B0VOX,Collector,1,408,2016-03-04T22:53:21-08:00,5,1,Stimuli/versionAstim.txt,Procedure/versionAproc.txt,Tetris,NA,DENTIST,,DENTIST,OFF,Unrel_Recall_L4,381,Study,No,3,Unrel_Recall_L4,ON,,3000,NA,NA,NA,NA,NA,NA,NA,NA"
"A14ATQ0J5B0VOX,Collector,1,409,2016-03-04T22:53:27-08:00,6,1,Stimuli/versionAstim.txt,Procedure/versionAproc.txt,Tetris,NA,ACORN,,ACORN,OFF,Unrel_Recall_L4,379,Study,No,3,Unrel_Recall_L4,ON,,3000,NA,NA,NA,NA,NA,NA,NA,NA"
"A14ATQ0J5B0VOX,Collector,1,410,2016-03-04T22:53:33-08:00,6,1,Stimuli/versionAstim.txt,Procedure/versionAproc.txt,Tetris,NA,OUTLAW,,OUTLAW,OFF,Unrel_Recall_L4,380,Study,No,3,Unrel_Recall_L4,ON,,3000,NA,NA,NA,NA,NA,NA,NA,NA"
"A14ATQ0J5B0VOX,Collector,1,411,2016-03-04T22:53:39-08:00,6,1,Stimuli/versionAstim.txt,Procedure/versionAproc.txt,Tetris,NA,BLOSSOM,,BLOSSOM,OFF,Unrel_Recall_L4,365,Study,No,3,Unrel_Recall_L4,ON,,3000,NA,NA,NA,NA,NA,NA,NA,NA"
"A14ATQ0J5B0VOX,Collector,1,412,2016-03-04T22:53:44-08:00,5,1,Stimuli/versionAstim.txt,Procedure/versionAproc.txt,Tetris,NA,n/a,n/a,n/a,n/a,n/a,0,Instruct,N/A,User,Recall Instructions: Recall the words that you saw by typing them into the dialog box on the next screen. You will have 1 minute. Click the button below to begin.,OFF,,3150,NA,NA,NA,NA,NA,NA,NA,NA"
"A14ATQ0J5B0VOX,Collector,1,413,2016-03-04T22:54:48-08:00,64,1,Stimuli/versionAstim.txt,Procedure/versionAproc.txt,Tetris,NA,n/a,n/a,n/a,n/a,n/a,0,freerecall,N/A,60,Recall now in the box. Spelling will not be counted against you. The computer will advance when your minute is up.,OFF,OUTLAW <br />  <br /> CANOE <br />  <br /> BLOSSOM <br />  <br /> APRICOT <br />  <br /> KEROSENE <br />  <br /> LAW <br />  <br /> CANON <br />  <br /> ,60000,1030,32430,NA,NA,NA,NA,NA,NA"
"A14ATQ0J5B0VOX,Collector,1,414,2016-03-04T22:54:55-08:00,7,1,Stimuli/versionAstim.txt,Procedure/versionAproc.txt,Tetris,NA,n/a,n/a,n/a,n/a,n/a,0,Instruct,N/A,User,Click the button below for the next list.,OFF,,4310,NA,NA,NA,NA,NA,NA,NA,NA"
"A14ATQ0J5B0VOX,Collector,1,415,2016-03-04T22:55:01-08:00,6,1,Stimuli/versionAstim.txt,Procedure/versionAproc.txt,Tetris,NA,BURLAP,,BURLAP,OFF,Cat_Recall_L5,386,Study,No,3,Cat_Recall_L5,ON,,3000,NA,NA,NA,NA,NA,NA,NA,NA"
"A14ATQ0J5B0VOX,Collector,1,416,2016-03-04T22:55:07-08:00,6,1,Stimuli/versionAstim.txt,Procedure/versionAproc.txt,Tetris,NA,CORDUROY,,CORDUROY,OFF,Cat_Recall_L5,388,Study,No,3,Cat_Recall_L5,ON,,3000,NA,NA,NA,NA,NA,NA,NA,NA"
"A14ATQ0J5B0VOX,Collector,1,417,2016-03-04T22:55:13-08:00,6,1,Stimuli/versionAstim.txt,Procedure/versionAproc.txt,Tetris,NA,TWILL,,TWILL,OFF,Cat_Recall_L5,382,Study,No,3,Cat_Recall_L5,ON,,3000,NA,NA,NA,NA,NA,NA,NA,NA"
"A14ATQ0J5B0VOX,Collector,1,418,2016-03-04T22:55:19-08:00,6,1,Stimuli/versionAstim.txt,Procedure/versionAproc.txt,Tetris,NA,WORSTED,,WORSTED,OFF,Cat_Recall_L5,385,Study,No,3,Cat_Recall_L5,ON,,3000,NA,NA,NA,NA,NA,NA,NA,NA"
"A14ATQ0J5B0VOX,Collector,1,419,2016-03-04T22:55:25-08:00,6,1,Stimuli/versionAstim.txt,Procedure/versionAproc.txt,Tetris,NA,FLANNEL,,FLANNEL,OFF,Cat_Recall_L5,389,Study,No,3,Cat_Recall_L5,ON,,3000,NA,NA,NA,NA,NA,NA,NA,NA"
"A14ATQ0J5B0VOX,Collector,1,420,2016-03-04T22:55:30-08:00,5,1,Stimuli/versionAstim.txt,Procedure/versionAproc.txt,Tetris,NA,DENIUM,,DENIUM,OFF,Cat_Recall_L5,387,Study,No,3,Cat_Recall_L5,ON,,3000,NA,NA,NA,NA,NA,NA,NA,NA"
"A14ATQ0J5B0VOX,Collector,1,421,2016-03-04T22:55:36-08:00,6,1,Stimuli/versionAstim.txt,Procedure/versionAproc.txt,Tetris,NA,TWEED,,TWEED,OFF,Cat_Recall_L5,392,Study,No,3,Cat_Recall_L5,ON,,3000,NA,NA,NA,NA,NA,NA,NA,NA"
"A14ATQ0J5B0VOX,Collector,1,422,2016-03-04T22:55:41-08:00,5,1,Stimuli/versionAstim.txt,Procedure/versionAproc.txt,Tetris,NA,SHEEPSKIN,,SHEEPSKIN,OFF,Cat_Recall_L5,394,Study,No,3,Cat_Recall_L5,ON,,3000,NA,NA,NA,NA,NA,NA,NA,NA"
"A14ATQ0J5B0VOX,Collector,1,423,2016-03-04T22:55:47-08:00,6,1,Stimuli/versionAstim.txt,Procedure/versionAproc.txt,Tetris,NA,CHEESE CLOTH,,CHEESE CLOTH,OFF,Cat_Recall_L5,390,Study,No,3,Cat_Recall_L5,ON,,3000,NA,NA,NA,NA,NA,NA,NA,NA"
"A14ATQ0J5B0VOX,Collector,1,424,2016-03-04T22:55:53-08:00,6,1,Stimuli/versionAstim.txt,Procedure/versionAproc.txt,Tetris,NA,CALICO,,CALICO,OFF,Cat_Recall_L5,384,Study,No,3,Cat_Recall_L5,ON,,3000,NA,NA,NA,NA,NA,NA,NA,NA"
"A14ATQ0J5B0VOX,Collector,1,425,2016-03-04T22:55:59-08:00,6,1,Stimuli/versionAstim.txt,Procedure/versionAproc.txt,Tetris,NA,FELT,,FELT,OFF,Cat_Recall_L5,396,Study,No,3,Cat_Recall_L5,ON,,3000,NA,NA,NA,NA,NA,NA,NA,NA"
"A14ATQ0J5B0VOX,Collector,1,426,2016-03-04T22:56:05-08:00,6,1,Stimuli/versionAstim.txt,Procedure/versionAproc.txt,Tetris,NA,ALPACA,,ALPACA,OFF,Cat_Recall_L5,399,Study,No,3,Cat_Recall_L5,ON,,3000,NA,NA,NA,NA,NA,NA,NA,NA"
"A14ATQ0J5B0VOX,Collector,1,427,2016-03-04T22:56:10-08:00,5,1,Stimuli/versionAstim.txt,Procedure/versionAproc.txt,Tetris,NA,JERSEY,,JERSEY,OFF,Cat_Recall_L5,395,Study,No,3,Cat_Recall_L5,ON,,3000,NA,NA,NA,NA,NA,NA,NA,NA"
"A14ATQ0J5B0VOX,Collector,1,428,2016-03-04T22:56:16-08:00,6,1,Stimuli/versionAstim.txt,Procedure/versionAproc.txt,Tetris,NA,CHIFFON,,CHIFFON,OFF,Cat_Recall_L5,400,Study,No,3,Cat_Recall_L5,ON,,3000,NA,NA,NA,NA,NA,NA,NA,NA"
"A14ATQ0J5B0VOX,Collector,1,429,2016-03-04T22:56:22-08:00,6,1,Stimuli/versionAstim.txt,Procedure/versionAproc.txt,Tetris,NA,ANGORA,,ANGORA,OFF,Cat_Recall_L5,398,Study,No,3,Cat_Recall_L5,ON,,3000,NA,NA,NA,NA,NA,NA,NA,NA"
"A14ATQ0J5B0VOX,Collector,1,430,2016-03-04T22:56:27-08:00,5,1,Stimuli/versionAstim.txt,Procedure/versionAproc.txt,Tetris,NA,POLYESTER,,POLYESTER,OFF,Cat_Recall_L5,393,Study,No,3,Cat_Recall_L5,ON,,3000,NA,NA,NA,NA,NA,NA,NA,NA"
"A14ATQ0J5B0VOX,Collector,1,431,2016-03-04T22:56:33-08:00,6,1,Stimuli/versionAstim.txt,Procedure/versionAproc.txt,Tetris,NA,LINEN,,LINEN,OFF,Cat_Recall_L5,383,Study,No,3,Cat_Recall_L5,ON,,3000,NA,NA,NA,NA,NA,NA,NA,NA"
"A14ATQ0J5B0VOX,Collector,1,432,2016-03-04T22:56:39-08:00,6,1,Stimuli/versionAstim.txt,Procedure/versionAproc.txt,Tetris,NA,TERRY,,TERRY,OFF,Cat_Recall_L5,391,Study,No,3,Cat_Recall_L5,ON,,3000,NA,NA,NA,NA,NA,NA,NA,NA"
"A14ATQ0J5B0VOX,Collector,1,433,2016-03-04T22:56:46-08:00,7,1,Stimuli/versionAstim.txt,Procedure/versionAproc.txt,Tetris,NA,LYCRA,,LYCRA,OFF,Cat_Recall_L5,401,Study,No,3,Cat_Recall_L5,ON,,3000,NA,NA,NA,NA,NA,NA,NA,NA"
"A14ATQ0J5B0VOX,Collector,1,434,2016-03-04T22:56:52-08:00,6,1,Stimuli/versionAstim.txt,Procedure/versionAproc.txt,Tetris,NA,LACE,,LACE,OFF,Cat_Recall_L5,397,Study,No,3,Cat_Recall_L5,ON,,3000,NA,NA,NA,NA,NA,NA,NA,NA"
"A14ATQ0J5B0VOX,Collector,1,435,2016-03-04T22:56:57-08:00,5,1,Stimuli/versionAstim.txt,Procedure/versionAproc.txt,Tetris,NA,n/a,n/a,n/a,n/a,n/a,0,Instruct,N/A,User,Recall Instructions: Recall the words that you saw by typing them into the dialog box on the next screen. You will have 1 minute. Click the button below to begin.,OFF,,1940,NA,NA,NA,NA,NA,NA,NA,NA"
