*Username	*ExperimentName	*Session	*Trial	*Date	*TimeDif	*Condition Number	*Stimuli File	*Order File	*Condition Description	*Condition Notes	Stimuli*Target	Stimuli*Cue	Stimuli*Answer	Stimuli*Shuffle	Stimuli*Stimuli Notes	Procedure*Item	Procedure*Trial Type	Procedure*Post Trial	Procedure*Timing	Procedure*Procedure Notes	Procedure*Shuffle	Response*Response1	Response*RT	Response*RTkey	Response*RTlast	Response*strictAcc	Response*lenientAcc	Response*Accuracy	Response*JOL	Response*postRT	Response*postRTkey
A1IU5OP7BBZHZ7	Collector	1	1	2016-03-04T17:59:33-08:00	-	1	Stimuli/versionAstim.txt	Procedure/versionAproc.txt	Tetris		n/a	n/a	n/a	n/a	n/a	0	Instruct	N/A	User	Click the button below for the first list.	Off		3160								
A1IU5OP7BBZHZ7	Collector	1	2	2016-03-04T17:59:38-08:00	5	1	Stimuli/versionAstim.txt	Procedure/versionAproc.txt	Tetris		CATERPILLAR		CATERPILLAR	OFF	AdHoc_G_L1	20	Study	No	3	AdHoc_G_L1	ON		3000								
A1IU5OP7BBZHZ7	Collector	1	3	2016-03-04T17:59:43-08:00	5	1	Stimuli/versionAstim.txt	Procedure/versionAproc.txt	Tetris		JADE		JADE	OFF	AdHoc_G_L1	10	Study	No	3	AdHoc_G_L1	ON		3000								
A1IU5OP7BBZHZ7	Collector	1	4	2016-03-04T17:59:47-08:00	4	1	Stimuli/versionAstim.txt	Procedure/versionAproc.txt	Tetris		JUNGLE		JUNGLE	OFF	AdHoc_G_L1	11	Study	No	3	AdHoc_G_L1	ON		3000								
A1IU5OP7BBZHZ7	Collector	1	5	2016-03-04T17:59:52-08:00	5	1	Stimuli/versionAstim.txt	Procedure/versionAproc.txt	Tetris		SALAD		SALAD	OFF	AdHoc_G_L1	21	Study	No	3	AdHoc_G_L1	ON		3000								
A1IU5OP7BBZHZ7	Collector	1	6	2016-03-04T17:59:57-08:00	5	1	Stimuli/versionAstim.txt	Procedure/versionAproc.txt	Tetris		MOSS		MOSS	OFF	AdHoc_G_L1	7	Study	No	3	AdHoc_G_L1	ON		3000								
A1IU5OP7BBZHZ7	Collector	1	7	2016-03-04T18:00:02-08:00	5	1	Stimuli/versionAstim.txt	Procedure/versionAproc.txt	Tetris		TENNIS BALL		TENNIS BALL	OFF	AdHoc_G_L1	13	Study	No	3	AdHoc_G_L1	ON		3000								
A1IU5OP7BBZHZ7	Collector	1	8	2016-03-04T18:00:07-08:00	5	1	Stimuli/versionAstim.txt	Procedure/versionAproc.txt	Tetris		SNAKE		SNAKE	OFF	AdHoc_G_L1	15	Study	No	3	AdHoc_G_L1	ON		3000								
A1IU5OP7BBZHZ7	Collector	1	9	2016-03-04T18:00:11-08:00	4	1	Stimuli/versionAstim.txt	Procedure/versionAproc.txt	Tetris		LEAVES		LEAVES	OFF	AdHoc_G_L1	3	Study	No	3	AdHoc_G_L1	ON		3000								
A1IU5OP7BBZHZ7	Collector	1	10	2016-03-04T18:00:16-08:00	5	1	Stimuli/versionAstim.txt	Procedure/versionAproc.txt	Tetris		LIZARD		LIZARD	OFF	AdHoc_G_L1	12	Study	No	3	AdHoc_G_L1	ON		3000								
A1IU5OP7BBZHZ7	Collector	1	11	2016-03-04T18:00:21-08:00	5	1	Stimuli/versionAstim.txt	Procedure/versionAproc.txt	Tetris		CHAMELEON		CHAMELEON	OFF	AdHoc_G_L1	18	Study	No	3	AdHoc_G_L1	ON		3000								
A1IU5OP7BBZHZ7	Collector	1	12	2016-03-04T18:00:26-08:00	5	1	Stimuli/versionAstim.txt	Procedure/versionAproc.txt	Tetris		LILY PAD		LILY PAD	OFF	AdHoc_G_L1	8	Study	No	3	AdHoc_G_L1	ON		3000								
A1IU5OP7BBZHZ7	Collector	1	13	2016-03-04T18:00:30-08:00	4	1	Stimuli/versionAstim.txt	Procedure/versionAproc.txt	Tetris		TREE		TREE	OFF	AdHoc_G_L1	6	Study	No	3	AdHoc_G_L1	ON		3000								
A1IU5OP7BBZHZ7	Collector	1	14	2016-03-04T18:00:36-08:00	6	1	Stimuli/versionAstim.txt	Procedure/versionAproc.txt	Tetris		CUCUMBER		CUCUMBER	OFF	AdHoc_G_L1	2	Study	No	3	AdHoc_G_L1	ON		3000								
A1IU5OP7BBZHZ7	Collector	1	15	2016-03-04T18:00:41-08:00	5	1	Stimuli/versionAstim.txt	Procedure/versionAproc.txt	Tetris		GRASSHOPPER		GRASSHOPPER	OFF	AdHoc_G_L1	14	Study	No	3	AdHoc_G_L1	ON		3000								
A1IU5OP7BBZHZ7	Collector	1	16	2016-03-04T18:00:46-08:00	5	1	Stimuli/versionAstim.txt	Procedure/versionAproc.txt	Tetris		SPROUTS		SPROUTS	OFF	AdHoc_G_L1	17	Study	No	3	AdHoc_G_L1	ON		3000								
A1IU5OP7BBZHZ7	Collector	1	17	2016-03-04T18:00:50-08:00	4	1	Stimuli/versionAstim.txt	Procedure/versionAproc.txt	Tetris		ALGAE		ALGAE	OFF	AdHoc_G_L1	16	Study	No	3	AdHoc_G_L1	ON		3000								
A1IU5OP7BBZHZ7	Collector	1	18	2016-03-04T18:00:55-08:00	5	1	Stimuli/versionAstim.txt	Procedure/versionAproc.txt	Tetris		FROG		FROG	OFF	AdHoc_G_L1	5	Study	No	3	AdHoc_G_L1	ON		3000								
A1IU5OP7BBZHZ7	Collector	1	19	2016-03-04T18:01:00-08:00	5	1	Stimuli/versionAstim.txt	Procedure/versionAproc.txt	Tetris		SHAMROCK		SHAMROCK	OFF	AdHoc_G_L1	9	Study	No	3	AdHoc_G_L1	ON		3000								
A1IU5OP7BBZHZ7	Collector	1	20	2016-03-04T18:01:05-08:00	5	1	Stimuli/versionAstim.txt	Procedure/versionAproc.txt	Tetris		MONEY		MONEY	OFF	AdHoc_G_L1	4	Study	No	3	AdHoc_G_L1	ON		3000								
A1IU5OP7BBZHZ7	Collector	1	21	2016-03-04T18:01:09-08:00	4	1	Stimuli/versionAstim.txt	Procedure/versionAproc.txt	Tetris		LIME		LIME	OFF	AdHoc_G_L1	19	Study	No	3	AdHoc_G_L1	ON		3000								
A1IU5OP7BBZHZ7	Collector	1	22	2016-03-04T18:01:23-08:00	14	1	Stimuli/versionAstim.txt	Procedure/versionAproc.txt	Tetris		n/a	n/a	n/a	n/a	n/a	0	Instruct	N/A	User	Guess Instructions: 5 words related to the list you just saw were not presented. Try to guess these words by typing them into the dialog box on the next screen. You must guess at least one.	OFF		11610								
A1IU5OP7BBZHZ7	Collector	1	23	2016-03-04T18:02:21-08:00	58	1	Stimuli/versionAstim.txt	Procedure/versionAproc.txt	Tetris		n/a	n/a	n/a	n/a	n/a	0	freerecall	N/A	User	Guess Below. You must make at least one guess. Click submit when you are finished.	OFF	Lizard <br />  <br /> Chameleon <br />  <br /> cucumber <br />  <br /> tree <br />  <br /> sprouts	55140	20350	52840						
A1IU5OP7BBZHZ7	Collector	1	24	2016-03-04T18:02:24-08:00	3	1	Stimuli/versionAstim.txt	Procedure/versionAproc.txt	Tetris		n/a	n/a	n/a	n/a	n/a	0	Instruct	N/A	User	Click the button below for the next list.	OFF		1620								
A1IU5OP7BBZHZ7	Collector	1	25	2016-03-04T18:02:29-08:00	5	1	Stimuli/versionAstim.txt	Procedure/versionAproc.txt	Tetris		INSECT		INSECT	OFF	Unrel_G_L2	33	Study	No	3	Unrel_G_L2	ON		3000								
A1IU5OP7BBZHZ7	Collector	1	26	2016-03-04T18:02:34-08:00	5	1	Stimuli/versionAstim.txt	Procedure/versionAproc.txt	Tetris		FIELD		FIELD	OFF	Unrel_G_L2	28	Study	No	3	Unrel_G_L2	ON		3000								
A1IU5OP7BBZHZ7	Collector	1	27	2016-03-04T18:02:39-08:00	5	1	Stimuli/versionAstim.txt	Procedure/versionAproc.txt	Tetris		PIPE		PIPE	OFF	Unrel_G_L2	37	Study	No	3	Unrel_G_L2	ON		3000								
A1IU5OP7BBZHZ7	Collector	1	28	2016-03-04T18:02:43-08:00	4	1	Stimuli/versionAstim.txt	Procedure/versionAproc.txt	Tetris		TUBE		TUBE	OFF	Unrel_G_L2	34	Study	No	3	Unrel_G_L2	ON		3000								
A1IU5OP7BBZHZ7	Collector	1	29	2016-03-04T18:02:48-08:00	5	1	Stimuli/versionAstim.txt	Procedure/versionAproc.txt	Tetris		CONE		CONE	OFF	Unrel_G_L2	31	Study	No	3	Unrel_G_L2	ON		3000								
A1IU5OP7BBZHZ7	Collector	1	30	2016-03-04T18:02:53-08:00	5	1	Stimuli/versionAstim.txt	Procedure/versionAproc.txt	Tetris		PYRAMID		PYRAMID	OFF	Unrel_G_L2	25	Study	No	3	Unrel_G_L2	ON		3000								
A1IU5OP7BBZHZ7	Collector	1	31	2016-03-04T18:02:58-08:00	5	1	Stimuli/versionAstim.txt	Procedure/versionAproc.txt	Tetris		SAND		SAND	OFF	Unrel_G_L2	35	Study	No	3	Unrel_G_L2	ON		3000								
A1IU5OP7BBZHZ7	Collector	1	32	2016-03-04T18:03:03-08:00	5	1	Stimuli/versionAstim.txt	Procedure/versionAproc.txt	Tetris		MANHOLE		MANHOLE	OFF	Unrel_G_L2	41	Study	No	3	Unrel_G_L2	ON		3000								
A1IU5OP7BBZHZ7	Collector	1	33	2016-03-04T18:03:07-08:00	4	1	Stimuli/versionAstim.txt	Procedure/versionAproc.txt	Tetris		BADGE		BADGE	OFF	Unrel_G_L2	23	Study	No	3	Unrel_G_L2	ON		3000								
A1IU5OP7BBZHZ7	Collector	1	34	2016-03-04T18:03:12-08:00	5	1	Stimuli/versionAstim.txt	Procedure/versionAproc.txt	Tetris		CORNER		CORNER	OFF	Unrel_G_L2	30	Study	No	3	Unrel_G_L2	ON		3000								
A1IU5OP7BBZHZ7	Collector	1	35	2016-03-04T18:03:17-08:00	5	1	Stimuli/versionAstim.txt	Procedure/versionAproc.txt	Tetris		ROD		ROD	OFF	Unrel_G_L2	24	Study	No	3	Unrel_G_L2	ON		3000								
A1IU5OP7BBZHZ7	Collector	1	36	2016-03-04T18:03:22-08:00	5	1	Stimuli/versionAstim.txt	Procedure/versionAproc.txt	Tetris		BARBELL		BARBELL	OFF	Unrel_G_L2	36	Study	No	3	Unrel_G_L2	ON		3000								
A1IU5OP7BBZHZ7	Collector	1	37	2016-03-04T18:03:26-08:00	4	1	Stimuli/versionAstim.txt	Procedure/versionAproc.txt	Tetris		HOOK		HOOK	OFF	Unrel_G_L2	27	Study	No	3	Unrel_G_L2	ON		3000								
A1IU5OP7BBZHZ7	Collector	1	38	2016-03-04T18:03:32-08:00	6	1	Stimuli/versionAstim.txt	Procedure/versionAproc.txt	Tetris		SHRIMP		SHRIMP	OFF	Unrel_G_L2	39	Study	No	3	Unrel_G_L2	ON		3000								
A1IU5OP7BBZHZ7	Collector	1	39	2016-03-04T18:03:37-08:00	5	1	Stimuli/versionAstim.txt	Procedure/versionAproc.txt	Tetris		HARNESS		HARNESS	OFF	Unrel_G_L2	38	Study	No	3	Unrel_G_L2	ON		3000								
A1IU5OP7BBZHZ7	Collector	1	40	2016-03-04T18:03:42-08:00	5	1	Stimuli/versionAstim.txt	Procedure/versionAproc.txt	Tetris		RIBBON		RIBBON	OFF	Unrel_G_L2	40	Study	No	3	Unrel_G_L2	ON		3000								
A1IU5OP7BBZHZ7	Collector	1	41	2016-03-04T18:03:46-08:00	4	1	Stimuli/versionAstim.txt	Procedure/versionAproc.txt	Tetris		BAG		BAG	OFF	Unrel_G_L2	32	Study	No	3	Unrel_G_L2	ON		3000								
A1IU5OP7BBZHZ7	Collector	1	42	2016-03-04T18:03:51-08:00	5	1	Stimuli/versionAstim.txt	Procedure/versionAproc.txt	Tetris		CRYPT		CRYPT	OFF	Unrel_G_L2	29	Study	No	3	Unrel_G_L2	ON		3000								
A1IU5OP7BBZHZ7	Collector	1	43	2016-03-04T18:03:56-08:00	5	1	Stimuli/versionAstim.txt	Procedure/versionAproc.txt	Tetris		FEAST		FEAST	OFF	Unrel_G_L2	26	Study	No	3	Unrel_G_L2	ON		3000								
A1IU5OP7BBZHZ7	Collector	1	44	2016-03-04T18:04:01-08:00	5	1	Stimuli/versionAstim.txt	Procedure/versionAproc.txt	Tetris		MAST		MAST	OFF	Unrel_G_L2	22	Study	No	3	Unrel_G_L2	ON		3000								
A1IU5OP7BBZHZ7	Collector	1	45	2016-03-04T18:05:09-08:00	68	1	Stimuli/versionAstim.txt	Procedure/versionAproc.txt	Tetris		n/a	n/a	n/a	n/a	n/a	0	Instruct	N/A	User	Guess Instructions: 5 words related to the list you just saw were not presented. Try to guess these words by typing them into the dialog box on the next screen. You must guess at least one.	OFF		52080								
A1IU5OP7BBZHZ7	Collector	1	46	2016-03-04T18:05:40-08:00	31	1	Stimuli/versionAstim.txt	Procedure/versionAproc.txt	Tetris		n/a	n/a	n/a	n/a	n/a	0	freerecall	N/A	User	Guess Below. You must make at least one guess. Click submit when you are finished.	OFF	Worms <br />  <br /> fish <br />  <br /> food <br />  <br /> plants	29690	2000	27470						
A1IU5OP7BBZHZ7	Collector	1	47	2016-03-04T18:06:02-08:00	22	1	Stimuli/versionAstim.txt	Procedure/versionAproc.txt	Tetris		n/a	n/a	n/a	n/a	n/a	0	Instruct	N/A	User	Click the button below for the next list.	OFF		19540								
A1IU5OP7BBZHZ7	Collector	1	48	2016-03-04T18:06:07-08:00	5	1	Stimuli/versionAstim.txt	Procedure/versionAproc.txt	Tetris		CHERRY		CHERRY	OFF	Cat_G_L3	45	Study	No	3	Cat_G_L3	ON		3000								
A1IU5OP7BBZHZ7	Collector	1	49	2016-03-04T18:06:12-08:00	5	1	Stimuli/versionAstim.txt	Procedure/versionAproc.txt	Tetris		RASPBERRY		RASPBERRY	OFF	Cat_G_L3	54	Study	No	3	Cat_G_L3	ON		3000								
A1IU5OP7BBZHZ7	Collector	1	50	2016-03-04T18:06:17-08:00	5	1	Stimuli/versionAstim.txt	Procedure/versionAproc.txt	Tetris		HONEYDEW		HONEYDEW	OFF	Cat_G_L3	60	Study	No	3	Cat_G_L3	ON		3000								
A1IU5OP7BBZHZ7	Collector	1	51	2016-03-04T18:06:22-08:00	5	1	Stimuli/versionAstim.txt	Procedure/versionAproc.txt	Tetris		PEAR		PEAR	OFF	Cat_G_L3	43	Study	No	3	Cat_G_L3	ON		3000								
A1IU5OP7BBZHZ7	Collector	1	52	2016-03-04T18:06:26-08:00	4	1	Stimuli/versionAstim.txt	Procedure/versionAproc.txt	Tetris		TANGERINE		TANGERINE	OFF	Cat_G_L3	47	Study	No	3	Cat_G_L3	ON		3000								
A1IU5OP7BBZHZ7	Collector	1	53	2016-03-04T18:06:31-08:00	5	1	Stimuli/versionAstim.txt	Procedure/versionAproc.txt	Tetris		PEACH		PEACH	OFF	Cat_G_L3	44	Study	No	3	Cat_G_L3	ON		3000								
A1IU5OP7BBZHZ7	Collector	1	54	2016-03-04T18:06:36-08:00	5	1	Stimuli/versionAstim.txt	Procedure/versionAproc.txt	Tetris		HUCKLEBERRY		HUCKLEBERRY	OFF	Cat_G_L3	61	Study	No	3	Cat_G_L3	ON		3000								
A1IU5OP7BBZHZ7	Collector	1	55	2016-03-04T18:06:42-08:00	6	1	Stimuli/versionAstim.txt	Procedure/versionAproc.txt	Tetris		STRAWBERRY		STRAWBERRY	OFF	Cat_G_L3	51	Study	No	3	Cat_G_L3	ON		3000								
A1IU5OP7BBZHZ7	Collector	1	56	2016-03-04T18:06:46-08:00	4	1	Stimuli/versionAstim.txt	Procedure/versionAproc.txt	Tetris		BLACKBERRY		BLACKBERRY	OFF	Cat_G_L3	50	Study	No	3	Cat_G_L3	ON		3000								
A1IU5OP7BBZHZ7	Collector	1	57	2016-03-04T18:06:51-08:00	5	1	Stimuli/versionAstim.txt	Procedure/versionAproc.txt	Tetris		PINEAPPLE		PINEAPPLE	OFF	Cat_G_L3	49	Study	No	3	Cat_G_L3	ON		3000								
A1IU5OP7BBZHZ7	Collector	1	58	2016-03-04T18:06:56-08:00	5	1	Stimuli/versionAstim.txt	Procedure/versionAproc.txt	Tetris		CANTALOUPE		CANTALOUPE	OFF	Cat_G_L3	53	Study	No	3	Cat_G_L3	ON		3000								
A1IU5OP7BBZHZ7	Collector	1	59	2016-03-04T18:07:00-08:00	4	1	Stimuli/versionAstim.txt	Procedure/versionAproc.txt	Tetris		RAISIN		RAISIN	OFF	Cat_G_L3	57	Study	No	3	Cat_G_L3	ON		3000								
A1IU5OP7BBZHZ7	Collector	1	60	2016-03-04T18:07:05-08:00	5	1	Stimuli/versionAstim.txt	Procedure/versionAproc.txt	Tetris		GRAPEFRUIT		GRAPEFRUIT	OFF	Cat_G_L3	46	Study	No	3	Cat_G_L3	ON		3000								
A1IU5OP7BBZHZ7	Collector	1	61	2016-03-04T18:07:10-08:00	5	1	Stimuli/versionAstim.txt	Procedure/versionAproc.txt	Tetris		COCONUT		COCONUT	OFF	Cat_G_L3	58	Study	No	3	Cat_G_L3	ON		3000								
A1IU5OP7BBZHZ7	Collector	1	62	2016-03-04T18:07:14-08:00	4	1	Stimuli/versionAstim.txt	Procedure/versionAproc.txt	Tetris		BLUEBERRY		BLUEBERRY	OFF	Cat_G_L3	55	Study	No	3	Cat_G_L3	ON		3000								
A1IU5OP7BBZHZ7	Collector	1	63	2016-03-04T18:07:19-08:00	5	1	Stimuli/versionAstim.txt	Procedure/versionAproc.txt	Tetris		WATERMELON		WATERMELON	OFF	Cat_G_L3	52	Study	No	3	Cat_G_L3	ON		3000								
A1IU5OP7BBZHZ7	Collector	1	64	2016-03-04T18:07:24-08:00	5	1	Stimuli/versionAstim.txt	Procedure/versionAproc.txt	Tetris		APRICOT		APRICOT	OFF	Cat_G_L3	48	Study	No	3	Cat_G_L3	ON		3000								
A1IU5OP7BBZHZ7	Collector	1	65	2016-03-04T18:07:28-08:00	4	1	Stimuli/versionAstim.txt	Procedure/versionAproc.txt	Tetris		MANGO		MANGO	OFF	Cat_G_L3	56	Study	No	3	Cat_G_L3	ON		3000								
A1IU5OP7BBZHZ7	Collector	1	66	2016-03-04T18:07:33-08:00	5	1	Stimuli/versionAstim.txt	Procedure/versionAproc.txt	Tetris		NECTARINE		NECTARINE	OFF	Cat_G_L3	59	Study	No	3	Cat_G_L3	ON		3000								
A1IU5OP7BBZHZ7	Collector	1	67	2016-03-04T18:07:38-08:00	5	1	Stimuli/versionAstim.txt	Procedure/versionAproc.txt	Tetris		APPLE		APPLE	OFF	Cat_G_L3	42	Study	No	3	Cat_G_L3	ON		3000								
A1IU5OP7BBZHZ7	Collector	1	68	2016-03-04T18:07:44-08:00	6	1	Stimuli/versionAstim.txt	Procedure/versionAproc.txt	Tetris		n/a	n/a	n/a	n/a	n/a	0	Instruct	N/A	User	Guess Instructions: 5 words related to the list you just saw were not presented. Try to guess these words by typing them into the dialog box on the next screen. You must guess at least one.	OFF		3230								
A1IU5OP7BBZHZ7	Collector	1	69	2016-03-04T18:08:25-08:00	41	1	Stimuli/versionAstim.txt	Procedure/versionAproc.txt	Tetris		n/a	n/a	n/a	n/a	n/a	0	freerecall	N/A	User	Guess Below. You must make at least one guess. Click submit when you are finished.	OFF	orange <br />  <br /> litchi <br />  <br /> banana <br />  <br /> guava <br />  <br /> muskmelon <br />  <br /> 	39740	2340	37670						
A1IU5OP7BBZHZ7	Collector	1	70	2016-03-04T18:08:30-08:00	5	1	Stimuli/versionAstim.txt	Procedure/versionAproc.txt	Tetris		n/a	n/a	n/a	n/a	n/a	0	Instruct	N/A	User	Click the button below for the next list.	OFF		2170								
A1IU5OP7BBZHZ7	Collector	1	71	2016-03-04T18:08:35-08:00	5	1	Stimuli/versionAstim.txt	Procedure/versionAproc.txt	Tetris		BELLS		BELLS	OFF	AdHoc_G_L4	65	Study	No	3	AdHoc_G_L4	ON		3000								
A1IU5OP7BBZHZ7	Collector	1	72	2016-03-04T18:08:40-08:00	5	1	Stimuli/versionAstim.txt	Procedure/versionAproc.txt	Tetris		WHISTLE		WHISTLE	OFF	AdHoc_G_L4	78	Study	No	3	AdHoc_G_L4	ON		3000								
A1IU5OP7BBZHZ7	Collector	1	73	2016-03-04T18:08:44-08:00	4	1	Stimuli/versionAstim.txt	Procedure/versionAproc.txt	Tetris		PARTY		PARTY	OFF	AdHoc_G_L4	75	Study	No	3	AdHoc_G_L4	ON		3000								
A1IU5OP7BBZHZ7	Collector	1	74	2016-03-04T18:08:49-08:00	5	1	Stimuli/versionAstim.txt	Procedure/versionAproc.txt	Tetris		TELEPHONE		TELEPHONE	OFF	AdHoc_G_L4	64	Study	No	3	AdHoc_G_L4	ON		3000								
A1IU5OP7BBZHZ7	Collector	1	75	2016-03-04T18:08:54-08:00	5	1	Stimuli/versionAstim.txt	Procedure/versionAproc.txt	Tetris		TRUMPET		TRUMPET	OFF	AdHoc_G_L4	69	Study	No	3	AdHoc_G_L4	ON		3000								
A1IU5OP7BBZHZ7	Collector	1	76	2016-03-04T18:08:58-08:00	4	1	Stimuli/versionAstim.txt	Procedure/versionAproc.txt	Tetris		BLENDER		BLENDER	OFF	AdHoc_G_L4	66	Study	No	3	AdHoc_G_L4	ON		3000								
A1IU5OP7BBZHZ7	Collector	1	77	2016-03-04T18:09:03-08:00	5	1	Stimuli/versionAstim.txt	Procedure/versionAproc.txt	Tetris		TRAIN		TRAIN	OFF	AdHoc_G_L4	62	Study	No	3	AdHoc_G_L4	ON		3000								
A1IU5OP7BBZHZ7	Collector	1	78	2016-03-04T18:09:08-08:00	5	1	Stimuli/versionAstim.txt	Procedure/versionAproc.txt	Tetris		STEREO		STEREO	OFF	AdHoc_G_L4	79	Study	No	3	AdHoc_G_L4	ON		3000								
A1IU5OP7BBZHZ7	Collector	1	79	2016-03-04T18:09:13-08:00	5	1	Stimuli/versionAstim.txt	Procedure/versionAproc.txt	Tetris		DRUMS		DRUMS	OFF	AdHoc_G_L4	73	Study	No	3	AdHoc_G_L4	ON		3000								
A1IU5OP7BBZHZ7	Collector	1	80	2016-03-04T18:09:17-08:00	4	1	Stimuli/versionAstim.txt	Procedure/versionAproc.txt	Tetris		BABIES		BABIES	OFF	AdHoc_G_L4	77	Study	No	3	AdHoc_G_L4	ON		3000								
A1IU5OP7BBZHZ7	Collector	1	81	2016-03-04T18:09:22-08:00	5	1	Stimuli/versionAstim.txt	Procedure/versionAproc.txt	Tetris		BOMB		BOMB	OFF	AdHoc_G_L4	81	Study	No	3	AdHoc_G_L4	ON		3000								
A1IU5OP7BBZHZ7	Collector	1	82	2016-03-04T18:09:27-08:00	5	1	Stimuli/versionAstim.txt	Procedure/versionAproc.txt	Tetris		CROWD		CROWD	OFF	AdHoc_G_L4	74	Study	No	3	AdHoc_G_L4	ON		3000								
A1IU5OP7BBZHZ7	Collector	1	83	2016-03-04T18:09:32-08:00	5	1	Stimuli/versionAstim.txt	Procedure/versionAproc.txt	Tetris		RADIO		RADIO	OFF	AdHoc_G_L4	70	Study	No	3	AdHoc_G_L4	ON		3000								
A1IU5OP7BBZHZ7	Collector	1	84	2016-03-04T18:09:37-08:00	5	1	Stimuli/versionAstim.txt	Procedure/versionAproc.txt	Tetris		TRACTOR		TRACTOR	OFF	AdHoc_G_L4	71	Study	No	3	AdHoc_G_L4	ON		3000								
A1IU5OP7BBZHZ7	Collector	1	85	2016-03-04T18:09:41-08:00	4	1	Stimuli/versionAstim.txt	Procedure/versionAproc.txt	Tetris		TRAFFIC		TRAFFIC	OFF	AdHoc_G_L4	68	Study	No	3	AdHoc_G_L4	ON		3000								
A1IU5OP7BBZHZ7	Collector	1	86	2016-03-04T18:09:46-08:00	5	1	Stimuli/versionAstim.txt	Procedure/versionAproc.txt	Tetris		YELL		YELL	OFF	AdHoc_G_L4	63	Study	No	3	AdHoc_G_L4	ON		3000								
A1IU5OP7BBZHZ7	Collector	1	87	2016-03-04T18:09:51-08:00	5	1	Stimuli/versionAstim.txt	Procedure/versionAproc.txt	Tetris		ORCHESTRA		ORCHESTRA	OFF	AdHoc_G_L4	72	Study	No	3	AdHoc_G_L4	ON		3000								
A1IU5OP7BBZHZ7	Collector	1	88	2016-03-04T18:09:56-08:00	5	1	Stimuli/versionAstim.txt	Procedure/versionAproc.txt	Tetris		CHAIN SAW		CHAIN SAW	OFF	AdHoc_G_L4	67	Study	No	3	AdHoc_G_L4	ON		3000								
A1IU5OP7BBZHZ7	Collector	1	89	2016-03-04T18:10:00-08:00	4	1	Stimuli/versionAstim.txt	Procedure/versionAproc.txt	Tetris		ROCKET		ROCKET	OFF	AdHoc_G_L4	80	Study	No	3	AdHoc_G_L4	ON		3000								
A1IU5OP7BBZHZ7	Collector	1	90	2016-03-04T18:10:05-08:00	5	1	Stimuli/versionAstim.txt	Procedure/versionAproc.txt	Tetris		FIREWORKS		FIREWORKS	OFF	AdHoc_G_L4	76	Study	No	3	AdHoc_G_L4	ON		3000								
A1IU5OP7BBZHZ7	Collector	1	91	2016-03-04T18:10:11-08:00	6	1	Stimuli/versionAstim.txt	Procedure/versionAproc.txt	Tetris		n/a	n/a	n/a	n/a	n/a	0	Instruct	N/A	User	Guess Instructions: 5 words related to the list you just saw were not presented. Try to guess these words by typing them into the dialog box on the next screen. You must guess at least one.	OFF		4050								
A1IU5OP7BBZHZ7	Collector	1	92	2016-03-04T18:10:46-08:00	35	1	Stimuli/versionAstim.txt	Procedure/versionAproc.txt	Tetris		n/a	n/a	n/a	n/a	n/a	0	freerecall	N/A	User	Guess Below. You must make at least one guess. Click submit when you are finished.	OFF	crackers <br />  <br /> movie <br />  <br /> alarm <br />  <br /> washingmachine <br />  <br /> cooker	33420	1460	31500						
A1IU5OP7BBZHZ7	Collector	1	93	2016-03-04T18:11:32-08:00	46	1	Stimuli/versionAstim.txt	Procedure/versionAproc.txt	Tetris		n/a	n/a	n/a	n/a	n/a	0	Instruct	N/A	User	Click the button below for the next list.	OFF		43870								
A1IU5OP7BBZHZ7	Collector	1	94	2016-03-04T18:11:37-08:00	5	1	Stimuli/versionAstim.txt	Procedure/versionAproc.txt	Tetris		RABBIT		RABBIT	OFF	Cat_G_L5	96	Study	No	3	Cat_G_L5	ON		3000								
A1IU5OP7BBZHZ7	Collector	1	95	2016-03-04T18:11:42-08:00	5	1	Stimuli/versionAstim.txt	Procedure/versionAproc.txt	Tetris		BUFFALO		BUFFALO	OFF	Cat_G_L5	101	Study	No	3	Cat_G_L5	ON		3000								
A1IU5OP7BBZHZ7	Collector	1	96	2016-03-04T18:11:46-08:00	4	1	Stimuli/versionAstim.txt	Procedure/versionAproc.txt	Tetris		SHEEP		SHEEP	OFF	Cat_G_L5	89	Study	No	3	Cat_G_L5	ON		3000								
A1IU5OP7BBZHZ7	Collector	1	97	2016-03-04T18:11:51-08:00	5	1	Stimuli/versionAstim.txt	Procedure/versionAproc.txt	Tetris		ELEPHANT		ELEPHANT	OFF	Cat_G_L5	85	Study	No	3	Cat_G_L5	ON		3000								
A1IU5OP7BBZHZ7	Collector	1	98	2016-03-04T18:11:56-08:00	5	1	Stimuli/versionAstim.txt	Procedure/versionAproc.txt	Tetris		LION		LION	OFF	Cat_G_L5	84	Study	No	3	Cat_G_L5	ON		3000								
A1IU5OP7BBZHZ7	Collector	1	99	2016-03-04T18:12:00-08:00	4	1	Stimuli/versionAstim.txt	Procedure/versionAproc.txt	Tetris		MULE		MULE	OFF	Cat_G_L5	98	Study	No	3	Cat_G_L5	ON		3000								
A1IU5OP7BBZHZ7	Collector	1	100	2016-03-04T18:12:05-08:00	5	1	Stimuli/versionAstim.txt	Procedure/versionAproc.txt	Tetris		RAT		RAT	OFF	Cat_G_L5	87	Study	No	3	Cat_G_L5	ON		3000								
A1IU5OP7BBZHZ7	Collector	1	101	2016-03-04T18:12:10-08:00	5	1	Stimuli/versionAstim.txt	Procedure/versionAproc.txt	Tetris		LEOPARD		LEOPARD	OFF	Cat_G_L5	97	Study	No	3	Cat_G_L5	ON		3000								
A1IU5OP7BBZHZ7	Collector	1	102	2016-03-04T18:12:14-08:00	4	1	Stimuli/versionAstim.txt	Procedure/versionAproc.txt	Tetris		BULL		BULL	OFF	Cat_G_L5	100	Study	No	3	Cat_G_L5	ON		3000								
A1IU5OP7BBZHZ7	Collector	1	103	2016-03-04T18:12:19-08:00	5	1	Stimuli/versionAstim.txt	Procedure/versionAproc.txt	Tetris		GIRAFFE		GIRAFFE	OFF	Cat_G_L5	90	Study	No	3	Cat_G_L5	ON		3000								
A1IU5OP7BBZHZ7	Collector	1	104	2016-03-04T18:12:24-08:00	5	1	Stimuli/versionAstim.txt	Procedure/versionAproc.txt	Tetris		HORSE		HORSE	OFF	Cat_G_L5	83	Study	No	3	Cat_G_L5	ON		3000								
A1IU5OP7BBZHZ7	Collector	1	105	2016-03-04T18:12:30-08:00	6	1	Stimuli/versionAstim.txt	Procedure/versionAproc.txt	Tetris		WOLF		WOLF	OFF	Cat_G_L5	94	Study	No	3	Cat_G_L5	ON		3000								
A1IU5OP7BBZHZ7	Collector	1	106	2016-03-04T18:12:34-08:00	4	1	Stimuli/versionAstim.txt	Procedure/versionAproc.txt	Tetris		ZEBRA		ZEBRA	OFF	Cat_G_L5	92	Study	No	3	Cat_G_L5	ON		3000								
A1IU5OP7BBZHZ7	Collector	1	107	2016-03-04T18:12:39-08:00	5	1	Stimuli/versionAstim.txt	Procedure/versionAproc.txt	Tetris		SQUIRREL		SQUIRREL	OFF	Cat_G_L5	93	Study	No	3	Cat_G_L5	ON		3000								
A1IU5OP7BBZHZ7	Collector	1	108	2016-03-04T18:12:43-08:00	4	1	Stimuli/versionAstim.txt	Procedure/versionAproc.txt	Tetris		BEAR		BEAR	OFF	Cat_G_L5	86	Study	No	3	Cat_G_L5	ON		3000								
A1IU5OP7BBZHZ7	Collector	1	109	2016-03-04T18:12:48-08:00	5	1	Stimuli/versionAstim.txt	Procedure/versionAproc.txt	Tetris		FOX		FOX	OFF	Cat_G_L5	99	Study	No	3	Cat_G_L5	ON		3000								
A1IU5OP7BBZHZ7	Collector	1	110	2016-03-04T18:12:53-08:00	5	1	Stimuli/versionAstim.txt	Procedure/versionAproc.txt	Tetris		DONKEY		DONKEY	OFF	Cat_G_L5	95	Study	No	3	Cat_G_L5	ON		3000								
A1IU5OP7BBZHZ7	Collector	1	111	2016-03-04T18:12:58-08:00	5	1	Stimuli/versionAstim.txt	Procedure/versionAproc.txt	Tetris		DEER		DEER	OFF	Cat_G_L5	88	Study	No	3	Cat_G_L5	ON		3000								
A1IU5OP7BBZHZ7	Collector	1	112	2016-03-04T18:13:03-08:00	5	1	Stimuli/versionAstim.txt	Procedure/versionAproc.txt	Tetris		GOAT		GOAT	OFF	Cat_G_L5	91	Study	No	3	Cat_G_L5	ON		3000								
A1IU5OP7BBZHZ7	Collector	1	113	2016-03-04T18:13:07-08:00	4	1	Stimuli/versionAstim.txt	Procedure/versionAproc.txt	Tetris		DOG		DOG	OFF	Cat_G_L5	82	Study	No	3	Cat_G_L5	ON		3000								
A1IU5OP7BBZHZ7	Collector	1	114	2016-03-04T18:13:11-08:00	4	1	Stimuli/versionAstim.txt	Procedure/versionAproc.txt	Tetris		n/a	n/a	n/a	n/a	n/a	0	Instruct	N/A	User	Guess Instructions: 5 words related to the list you just saw were not presented. Try to guess these words by typing them into the dialog box on the next screen. You must guess at least one.	OFF		1740								
A1IU5OP7BBZHZ7	Collector	1	115	2016-03-04T18:14:04-08:00	53	1	Stimuli/versionAstim.txt	Procedure/versionAproc.txt	Tetris		n/a	n/a	n/a	n/a	n/a	0	freerecall	N/A	User	Guess Below. You must make at least one guess. Click submit when you are finished.	OFF	cat <br />  <br /> cow <br />  <br /> snake <br />  <br /> fish <br />  <br /> tiger	48250	1380	45140						
A1IU5OP7BBZHZ7	Collector	1	116	2016-03-04T18:14:28-08:00	24	1	Stimuli/versionAstim.txt	Procedure/versionAproc.txt	Tetris		n/a	n/a	n/a	n/a	n/a	0	Instruct	N/A	User	Click the button below for the next list.	OFF		22260								
A1IU5OP7BBZHZ7	Collector	1	117	2016-03-04T18:14:32-08:00	4	1	Stimuli/versionAstim.txt	Procedure/versionAproc.txt	Tetris		BEDROOM		BEDROOM	OFF	Unrel_G_L6	110	Study	No	3	Unrel_G_L6	ON		3000								
A1IU5OP7BBZHZ7	Collector	1	118	2016-03-04T18:14:37-08:00	5	1	Stimuli/versionAstim.txt	Procedure/versionAproc.txt	Tetris		CROWN		CROWN	OFF	Unrel_G_L6	116	Study	No	3	Unrel_G_L6	ON		3000								
A1IU5OP7BBZHZ7	Collector	1	119	2016-03-04T18:14:42-08:00	5	1	Stimuli/versionAstim.txt	Procedure/versionAproc.txt	Tetris		SHORE		SHORE	OFF	Unrel_G_L6	115	Study	No	3	Unrel_G_L6	ON		3000								
A1IU5OP7BBZHZ7	Collector	1	120	2016-03-04T18:14:46-08:00	4	1	Stimuli/versionAstim.txt	Procedure/versionAproc.txt	Tetris		HAMSTER		HAMSTER	OFF	Unrel_G_L6	108	Study	No	3	Unrel_G_L6	ON		3000								
A1IU5OP7BBZHZ7	Collector	1	121	2016-03-04T18:14:51-08:00	5	1	Stimuli/versionAstim.txt	Procedure/versionAproc.txt	Tetris		DECK		DECK	OFF	Unrel_G_L6	119	Study	No	3	Unrel_G_L6	ON		3000								
A1IU5OP7BBZHZ7	Collector	1	122	2016-03-04T18:14:56-08:00	5	1	Stimuli/versionAstim.txt	Procedure/versionAproc.txt	Tetris		GRAVY		GRAVY	OFF	Unrel_G_L6	102	Study	No	3	Unrel_G_L6	ON		3000								
A1IU5OP7BBZHZ7	Collector	1	123	2016-03-04T18:15:00-08:00	4	1	Stimuli/versionAstim.txt	Procedure/versionAproc.txt	Tetris		COUSIN		COUSIN	OFF	Unrel_G_L6	104	Study	No	3	Unrel_G_L6	ON		3000								
A1IU5OP7BBZHZ7	Collector	1	124	2016-03-04T18:15:05-08:00	5	1	Stimuli/versionAstim.txt	Procedure/versionAproc.txt	Tetris		CAPSULE		CAPSULE	OFF	Unrel_G_L6	118	Study	No	3	Unrel_G_L6	ON		3000								
A1IU5OP7BBZHZ7	Collector	1	125	2016-03-04T18:15:10-08:00	5	1	Stimuli/versionAstim.txt	Procedure/versionAproc.txt	Tetris		POISON		POISON	OFF	Unrel_G_L6	111	Study	No	3	Unrel_G_L6	ON		3000								
A1IU5OP7BBZHZ7	Collector	1	126	2016-03-04T18:15:16-08:00	6	1	Stimuli/versionAstim.txt	Procedure/versionAproc.txt	Tetris		DRIFT		DRIFT	OFF	Unrel_G_L6	120	Study	No	3	Unrel_G_L6	ON		3000								
A1IU5OP7BBZHZ7	Collector	1	127	2016-03-04T18:15:21-08:00	5	1	Stimuli/versionAstim.txt	Procedure/versionAproc.txt	Tetris		CROSS		CROSS	OFF	Unrel_G_L6	106	Study	No	3	Unrel_G_L6	ON		3000								
A1IU5OP7BBZHZ7	Collector	1	128	2016-03-04T18:15:25-08:00	4	1	Stimuli/versionAstim.txt	Procedure/versionAproc.txt	Tetris		CAKE		CAKE	OFF	Unrel_G_L6	105	Study	No	3	Unrel_G_L6	ON		3000								
A1IU5OP7BBZHZ7	Collector	1	129	2016-03-04T18:15:31-08:00	6	1	Stimuli/versionAstim.txt	Procedure/versionAproc.txt	Tetris		CLOCK		CLOCK	OFF	Unrel_G_L6	103	Study	No	3	Unrel_G_L6	ON		3000								
A1IU5OP7BBZHZ7	Collector	1	130	2016-03-04T18:15:37-08:00	6	1	Stimuli/versionAstim.txt	Procedure/versionAproc.txt	Tetris		PILOT		PILOT	OFF	Unrel_G_L6	112	Study	No	3	Unrel_G_L6	ON		3000								
A1IU5OP7BBZHZ7	Collector	1	131	2016-03-04T18:15:42-08:00	5	1	Stimuli/versionAstim.txt	Procedure/versionAproc.txt	Tetris		MOVIE		MOVIE	OFF	Unrel_G_L6	117	Study	No	3	Unrel_G_L6	ON		3000								
A1IU5OP7BBZHZ7	Collector	1	132	2016-03-04T18:15:46-08:00	4	1	Stimuli/versionAstim.txt	Procedure/versionAproc.txt	Tetris		STADIUM		STADIUM	OFF	Unrel_G_L6	107	Study	No	3	Unrel_G_L6	ON		3000								
A1IU5OP7BBZHZ7	Collector	1	133	2016-03-04T18:15:52-08:00	6	1	Stimuli/versionAstim.txt	Procedure/versionAproc.txt	Tetris		SUNRISE		SUNRISE	OFF	Unrel_G_L6	121	Study	No	3	Unrel_G_L6	ON		3000								
A1IU5OP7BBZHZ7	Collector	1	134	2016-03-04T18:15:57-08:00	5	1	Stimuli/versionAstim.txt	Procedure/versionAproc.txt	Tetris		EARTH		EARTH	OFF	Unrel_G_L6	114	Study	No	3	Unrel_G_L6	ON		3000								
A1IU5OP7BBZHZ7	Collector	1	135	2016-03-04T18:16:02-08:00	5	1	Stimuli/versionAstim.txt	Procedure/versionAproc.txt	Tetris		FATHER		FATHER	OFF	Unrel_G_L6	109	Study	No	3	Unrel_G_L6	ON		3000								
A1IU5OP7BBZHZ7	Collector	1	136	2016-03-04T18:16:06-08:00	4	1	Stimuli/versionAstim.txt	Procedure/versionAproc.txt	Tetris		ENGINE		ENGINE	OFF	Unrel_G_L6	113	Study	No	3	Unrel_G_L6	ON		3000								
A1IU5OP7BBZHZ7	Collector	1	137	2016-03-04T18:16:29-08:00	23	1	Stimuli/versionAstim.txt	Procedure/versionAproc.txt	Tetris		n/a	n/a	n/a	n/a	n/a	0	Instruct	N/A	User	Guess Instructions: 5 words related to the list you just saw were not presented. Try to guess these words by typing them into the dialog box on the next screen. You must guess at least one.	OFF		21090								
A1IU5OP7BBZHZ7	Collector	1	138	2016-03-04T18:16:37-08:00	8	1	Stimuli/versionAstim.txt	Procedure/versionAproc.txt	Tetris		n/a	n/a	n/a	n/a	n/a	0	freerecall	N/A	User	Guess Below. You must make at least one guess. Click submit when you are finished.	OFF	medicine	5990	2750	3900						
A1IU5OP7BBZHZ7	Collector	1	139	2016-03-04T18:16:53-08:00	16	1	Stimuli/versionAstim.txt	Procedure/versionAproc.txt	Tetris		n/a	n/a	n/a	n/a	n/a	0	Instruct	N/A	User	Now you will complete a recognition memory test based on the last 6 lists that you have studied. A word will be displayed on the computer screen and you are to decide whether the word was studied in the last 6 lists. If the word was studied, click the "yes" button. If the word was not studied, click the "no" button. Respond as quickly as possible without compromising accuracy.	OFF		14230								
A1IU5OP7BBZHZ7	Collector	1	140	2016-03-04T18:16:57-08:00	4	1	Stimuli/versionAstim.txt	Procedure/versionAproc.txt	Tetris		n/a	n/a	n/a	n/a	n/a	0	Instruct	N/A	User	Click the button below to begin the test.	OFF		1470								
A1IU5OP7BBZHZ7	Collector	1	141	2016-03-04T18:17:00-08:00	3	1	Stimuli/versionAstim.txt	Procedure/versionAproc.txt	Tetris		PACKET		PACKET	OFF	NPCI_Unrel_G	290	seqrec	No	User	RGN Test	ON	No	1170								
A1IU5OP7BBZHZ7	Collector	1	142	2016-03-04T18:17:03-08:00	3	1	Stimuli/versionAstim.txt	Procedure/versionAproc.txt	Tetris		RAISIN		RAISIN	OFF	LI_Cat_G	149	seqrec	No	User	RGN Test	ON	Yes	1180								
A1IU5OP7BBZHZ7	Collector	1	143	2016-03-04T18:17:07-08:00	4	1	Stimuli/versionAstim.txt	Procedure/versionAproc.txt	Tetris		CREPE		CREPE	OFF	NPLI_Unrel_G	246	seqrec	No	User	RGN Test	ON	No	1590								
A1IU5OP7BBZHZ7	Collector	1	144	2016-03-04T18:17:09-08:00	2	1	Stimuli/versionAstim.txt	Procedure/versionAproc.txt	Tetris		CROW		CROW	OFF	NPCI_AdHoc_G	296	seqrec	No	User	RGN Test	ON	No	1320								
A1IU5OP7BBZHZ7	Collector	1	145	2016-03-04T18:17:12-08:00	3	1	Stimuli/versionAstim.txt	Procedure/versionAproc.txt	Tetris		DRUMS		DRUMS	OFF	LI_AdHoc_G	157	seqrec	No	User	RGN Test	ON	Yes	1170								
A1IU5OP7BBZHZ7	Collector	1	146	2016-03-04T18:17:15-08:00	3	1	Stimuli/versionAstim.txt	Procedure/versionAproc.txt	Tetris		SAND		SAND	OFF	LI_Unrel_G	138	seqrec	No	User	RGN Test	ON	Yes	1280								
A1IU5OP7BBZHZ7	Collector	1	147	2016-03-04T18:17:19-08:00	4	1	Stimuli/versionAstim.txt	Procedure/versionAproc.txt	Tetris		PAPERCLIP		PAPERCLIP	OFF	NPLI_Unrel_G	239	seqrec	No	User	RGN Test	ON	No	2370								
A1IU5OP7BBZHZ7	Collector	1	148	2016-03-04T18:17:23-08:00	4	1	Stimuli/versionAstim.txt	Procedure/versionAproc.txt	Tetris		SAW		SAW	OFF	NPCI_Cat_G	297	seqrec	No	User	RGN Test	ON	No	1000								
A1IU5OP7BBZHZ7	Collector	1	149	2016-03-04T18:17:26-08:00	3	1	Stimuli/versionAstim.txt	Procedure/versionAproc.txt	Tetris		SCOUT		SCOUT	OFF	NPLI_Unrel_G	236	seqrec	No	User	RGN Test	ON	No	1740								
A1IU5OP7BBZHZ7	Collector	1	150	2016-03-04T18:17:29-08:00	3	1	Stimuli/versionAstim.txt	Procedure/versionAproc.txt	Tetris		LAKE		LAKE	OFF	NPLI_AdHoc_G	217	seqrec	No	User	RGN Test	ON	No	810								
A1IU5OP7BBZHZ7	Collector	1	151	2016-03-04T18:17:32-08:00	3	1	Stimuli/versionAstim.txt	Procedure/versionAproc.txt	Tetris		MINT		MINT	OFF	CI_AdHoc_G	186	seqrec	No	User	RGN Test	ON	No	1450								
A1IU5OP7BBZHZ7	Collector	1	152	2016-03-04T18:17:34-08:00	2	1	Stimuli/versionAstim.txt	Procedure/versionAproc.txt	Tetris		BOW		BOW	OFF	CI_Unrel_G	188	seqrec	No	User	RGN Test	ON	No	920								
A1IU5OP7BBZHZ7	Collector	1	153	2016-03-04T18:17:37-08:00	3	1	Stimuli/versionAstim.txt	Procedure/versionAproc.txt	Tetris		STEREO		STEREO	OFF	LI_AdHoc_G	160	seqrec	No	User	RGN Test	ON	Yes	1360								
A1IU5OP7BBZHZ7	Collector	1	154	2016-03-04T18:17:40-08:00	3	1	Stimuli/versionAstim.txt	Procedure/versionAproc.txt	Tetris		TRACTOR		TRACTOR	OFF	LI_AdHoc_G	156	seqrec	No	User	RGN Test	ON	Yes	810								
A1IU5OP7BBZHZ7	Collector	1	155	2016-03-04T18:17:42-08:00	2	1	Stimuli/versionAstim.txt	Procedure/versionAproc.txt	Tetris		ASH		ASH	OFF	NPLI_AdHoc_G	258	seqrec	No	User	RGN Test	ON	No	1080								
A1IU5OP7BBZHZ7	Collector	1	156	2016-03-04T18:17:48-08:00	6	1	Stimuli/versionAstim.txt	Procedure/versionAproc.txt	Tetris		ENGINE		ENGINE	OFF	LI_Unrel_G	177	seqrec	No	User	RGN Test	ON	Yes	1620								
A1IU5OP7BBZHZ7	Collector	1	157	2016-03-04T18:17:51-08:00	3	1	Stimuli/versionAstim.txt	Procedure/versionAproc.txt	Tetris		SHADOW		SHADOW	OFF	NPLI_AdHoc_G	260	seqrec	No	User	RGN Test	ON	No	1280								
A1IU5OP7BBZHZ7	Collector	1	158	2016-03-04T18:17:54-08:00	3	1	Stimuli/versionAstim.txt	Procedure/versionAproc.txt	Tetris		LEAVES		LEAVES	OFF	LI_AdHoc_G	122	seqrec	No	User	RGN Test	ON	Yes	1890								
A1IU5OP7BBZHZ7	Collector	1	159	2016-03-04T18:17:58-08:00	4	1	Stimuli/versionAstim.txt	Procedure/versionAproc.txt	Tetris		TENNIS BALL		TENNIS BALL	OFF	LI_AdHoc_G	127	seqrec	No	User	RGN Test	ON	No	1840								
A1IU5OP7BBZHZ7	Collector	1	160	2016-03-04T18:18:01-08:00	3	1	Stimuli/versionAstim.txt	Procedure/versionAproc.txt	Tetris		STRAWBERRY		STRAWBERRY	OFF	LI_Cat_G	146	seqrec	No	User	RGN Test	ON	Yes	910								
A1IU5OP7BBZHZ7	Collector	1	161	2016-03-04T18:18:05-08:00	4	1	Stimuli/versionAstim.txt	Procedure/versionAproc.txt	Tetris		SHAMROCK		SHAMROCK	OFF	LI_AdHoc_G	125	seqrec	No	User	RGN Test	ON	Yes	1560								
A1IU5OP7BBZHZ7	Collector	1	162	2016-03-04T18:18:08-08:00	3	1	Stimuli/versionAstim.txt	Procedure/versionAproc.txt	Tetris		CAULIFLOWER		CAULIFLOWER	OFF	NPLI_Cat_G	225	seqrec	No	User	RGN Test	ON	No	970								
A1IU5OP7BBZHZ7	Collector	1	163	2016-03-04T18:18:13-08:00	5	1	Stimuli/versionAstim.txt	Procedure/versionAproc.txt	Tetris		TIGER		TIGER	OFF	CI_Cat_G	204	seqrec	No	User	RGN Test	ON	No	1810								
A1IU5OP7BBZHZ7	Collector	1	164	2016-03-04T18:18:17-08:00	4	1	Stimuli/versionAstim.txt	Procedure/versionAproc.txt	Tetris		CONE		CONE	OFF	LI_Unrel_G	136	seqrec	No	User	RGN Test	ON	Yes	1710								
A1IU5OP7BBZHZ7	Collector	1	165	2016-03-04T18:18:20-08:00	3	1	Stimuli/versionAstim.txt	Procedure/versionAproc.txt	Tetris		GRAPE		GRAPE	OFF	CI_Cat_G	194	seqrec	No	User	RGN Test	ON	No	1410								
A1IU5OP7BBZHZ7	Collector	1	166	2016-03-04T18:18:23-08:00	3	1	Stimuli/versionAstim.txt	Procedure/versionAproc.txt	Tetris		FROG		FROG	OFF	LI_AdHoc_G	123	seqrec	No	User	RGN Test	ON	Yes	1370								
A1IU5OP7BBZHZ7	Collector	1	167	2016-03-04T18:18:27-08:00	4	1	Stimuli/versionAstim.txt	Procedure/versionAproc.txt	Tetris		BANANA		BANANA	OFF	CI_Cat_G	193	seqrec	No	User	RGN Test	ON	No	1810								
A1IU5OP7BBZHZ7	Collector	1	168	2016-03-04T18:18:30-08:00	3	1	Stimuli/versionAstim.txt	Procedure/versionAproc.txt	Tetris		MALE		MALE	OFF	NPLI_Unrel_G	248	seqrec	No	User	RGN Test	ON	No	1200								
A1IU5OP7BBZHZ7	Collector	1	169	2016-03-04T18:18:34-08:00	4	1	Stimuli/versionAstim.txt	Procedure/versionAproc.txt	Tetris		MACHINE		MACHINE	OFF	NPLI_Unrel_G	244	seqrec	No	User	RGN Test	ON	No	2460								
A1IU5OP7BBZHZ7	Collector	1	170	2016-03-04T18:18:37-08:00	3	1	Stimuli/versionAstim.txt	Procedure/versionAproc.txt	Tetris		CARROT		CARROT	OFF	NPCI_Cat_G	281	seqrec	No	User	RGN Test	ON	No	1120								
A1IU5OP7BBZHZ7	Collector	1	171	2016-03-04T18:18:39-08:00	2	1	Stimuli/versionAstim.txt	Procedure/versionAproc.txt	Tetris		JUICE		JUICE	OFF	NPCI_AdHoc_G	274	seqrec	No	User	RGN Test	ON	No	1200								
A1IU5OP7BBZHZ7	Collector	1	172	2016-03-04T18:18:43-08:00	4	1	Stimuli/versionAstim.txt	Procedure/versionAproc.txt	Tetris		EMERALD		EMERALD	OFF	CI_AdHoc_G	183	seqrec	No	User	RGN Test	ON	No	1720								
A1IU5OP7BBZHZ7	Collector	1	173	2016-03-04T18:18:46-08:00	3	1	Stimuli/versionAstim.txt	Procedure/versionAproc.txt	Tetris		CHERRY		CHERRY	OFF	LI_Cat_G	143	seqrec	No	User	RGN Test	ON	Yes	1310								
A1IU5OP7BBZHZ7	Collector	1	174	2016-03-04T18:18:50-08:00	4	1	Stimuli/versionAstim.txt	Procedure/versionAproc.txt	Tetris		SANDER		SANDER	OFF	NPLI_Cat_G	268	seqrec	No	User	RGN Test	ON	No	2110								
A1IU5OP7BBZHZ7	Collector	1	175	2016-03-04T18:18:52-08:00	2	1	Stimuli/versionAstim.txt	Procedure/versionAproc.txt	Tetris		POTATO		POTATO	OFF	NPLI_Cat_G	222	seqrec	No	User	RGN Test	ON	No	1040								
A1IU5OP7BBZHZ7	Collector	1	176	2016-03-04T18:18:55-08:00	3	1	Stimuli/versionAstim.txt	Procedure/versionAproc.txt	Tetris		BELLS		BELLS	OFF	LI_AdHoc_G	153	seqrec	No	User	RGN Test	ON	Yes	1360								
A1IU5OP7BBZHZ7	Collector	1	177	2016-03-04T18:18:58-08:00	3	1	Stimuli/versionAstim.txt	Procedure/versionAproc.txt	Tetris		EBONY		EBONY	OFF	NPLI_AdHoc_G	261	seqrec	No	User	RGN Test	ON	No	1290								
A1IU5OP7BBZHZ7	Collector	1	178	2016-03-04T18:19:01-08:00	3	1	Stimuli/versionAstim.txt	Procedure/versionAproc.txt	Tetris		MOVIE		MOVIE	OFF	LI_Unrel_G	179	seqrec	No	User	RGN Test	ON	Yes	1450								
A1IU5OP7BBZHZ7	Collector	1	179	2016-03-04T18:19:04-08:00	3	1	Stimuli/versionAstim.txt	Procedure/versionAproc.txt	Tetris		DOME		DOME	OFF	NPLI_Unrel_G	235	seqrec	No	User	RGN Test	ON	No	1490								
A1IU5OP7BBZHZ7	Collector	1	180	2016-03-04T18:19:07-08:00	3	1	Stimuli/versionAstim.txt	Procedure/versionAproc.txt	Tetris		RUT		RUT	OFF	NPLI_Unrel_G	249	seqrec	No	User	RGN Test	ON	No	1210								
A1IU5OP7BBZHZ7	Collector	1	181	2016-03-04T18:19:10-08:00	3	1	Stimuli/versionAstim.txt	Procedure/versionAproc.txt	Tetris		AIRPORT		AIRPORT	OFF	NPLI_Unrel_G	247	seqrec	No	User	RGN Test	ON	No	920								
A1IU5OP7BBZHZ7	Collector	1	182	2016-03-04T18:19:13-08:00	3	1	Stimuli/versionAstim.txt	Procedure/versionAproc.txt	Tetris		SWEAT		SWEAT	OFF	NPLI_AdHoc_G	214	seqrec	No	User	RGN Test	ON	No	1110								
A1IU5OP7BBZHZ7	Collector	1	183	2016-03-04T18:19:15-08:00	2	1	Stimuli/versionAstim.txt	Procedure/versionAproc.txt	Tetris		OBSIDIAN		OBSIDIAN	OFF	NPLI_AdHoc_G	259	seqrec	No	User	RGN Test	ON	No	700								
A1IU5OP7BBZHZ7	Collector	1	184	2016-03-04T18:19:18-08:00	3	1	Stimuli/versionAstim.txt	Procedure/versionAproc.txt	Tetris		MOSS		MOSS	OFF	LI_AdHoc_G	124	seqrec	No	User	RGN Test	ON	Yes	1170								
A1IU5OP7BBZHZ7	Collector	1	185	2016-03-04T18:19:22-08:00	4	1	Stimuli/versionAstim.txt	Procedure/versionAproc.txt	Tetris		GARAGE		GARAGE	OFF	NPCI_Unrel_G	285	seqrec	No	User	RGN Test	ON	No	1580								
A1IU5OP7BBZHZ7	Collector	1	186	2016-03-04T18:19:25-08:00	3	1	Stimuli/versionAstim.txt	Procedure/versionAproc.txt	Tetris		HAMMER		HAMMER	OFF	NPCI_Cat_G	301	seqrec	No	User	RGN Test	ON	No	1310								
A1IU5OP7BBZHZ7	Collector	1	187	2016-03-04T18:19:27-08:00	2	1	Stimuli/versionAstim.txt	Procedure/versionAproc.txt	Tetris		WOUND		WOUND	OFF	CI_Unrel_G	189	seqrec	No	User	RGN Test	ON	No	670								
A1IU5OP7BBZHZ7	Collector	1	188	2016-03-04T18:19:30-08:00	3	1	Stimuli/versionAstim.txt	Procedure/versionAproc.txt	Tetris		PARTY		PARTY	OFF	LI_AdHoc_G	158	seqrec	No	User	RGN Test	ON	Yes	1610								
A1IU5OP7BBZHZ7	Collector	1	189	2016-03-04T18:19:33-08:00	3	1	Stimuli/versionAstim.txt	Procedure/versionAproc.txt	Tetris		AVOCADO		AVOCADO	OFF	CI_AdHoc_G	184	seqrec	No	User	RGN Test	ON	No	800								
A1IU5OP7BBZHZ7	Collector	1	190	2016-03-04T18:19:35-08:00	2	1	Stimuli/versionAstim.txt	Procedure/versionAproc.txt	Tetris		SHRIMP		SHRIMP	OFF	LI_Unrel_G	140	seqrec	No	User	RGN Test	ON	Yes	1040								
A1IU5OP7BBZHZ7	Collector	1	191	2016-03-04T18:19:38-08:00	3	1	Stimuli/versionAstim.txt	Procedure/versionAproc.txt	Tetris		REPTILE		REPTILE	OFF	NPLI_Unrel_G	241	seqrec	No	User	RGN Test	ON	No	980								
A1IU5OP7BBZHZ7	Collector	1	192	2016-03-04T18:19:40-08:00	2	1	Stimuli/versionAstim.txt	Procedure/versionAproc.txt	Tetris		PEPPERS		PEPPERS	OFF	NPLI_Cat_G	229	seqrec	No	User	RGN Test	ON	No	1070								
A1IU5OP7BBZHZ7	Collector	1	193	2016-03-04T18:19:43-08:00	3	1	Stimuli/versionAstim.txt	Procedure/versionAproc.txt	Tetris		INSECT		INSECT	OFF	LI_Unrel_G	137	seqrec	No	User	RGN Test	ON	Yes	1140								
A1IU5OP7BBZHZ7	Collector	1	194	2016-03-04T18:19:46-08:00	3	1	Stimuli/versionAstim.txt	Procedure/versionAproc.txt	Tetris		PIG		PIG	OFF	CI_Cat_G	205	seqrec	No	User	RGN Test	ON	No	970								
A1IU5OP7BBZHZ7	Collector	1	195	2016-03-04T18:19:48-08:00	2	1	Stimuli/versionAstim.txt	Procedure/versionAproc.txt	Tetris		COFFEE		COFFEE	OFF	NPCI_AdHoc_G	272	seqrec	No	User	RGN Test	ON	No	660								
A1IU5OP7BBZHZ7	Collector	1	196	2016-03-04T18:19:50-08:00	2	1	Stimuli/versionAstim.txt	Procedure/versionAproc.txt	Tetris		INK		INK	OFF	NPLI_AdHoc_G	257	seqrec	No	User	RGN Test	ON	No	770								
A1IU5OP7BBZHZ7	Collector	1	197	2016-03-04T18:19:53-08:00	3	1	Stimuli/versionAstim.txt	Procedure/versionAproc.txt	Tetris		GUN		GUN	OFF	CI_AdHoc_G	198	seqrec	No	User	RGN Test	ON	No	720								
A1IU5OP7BBZHZ7	Collector	1	198	2016-03-04T18:19:56-08:00	3	1	Stimuli/versionAstim.txt	Procedure/versionAproc.txt	Tetris		BADGE		BADGE	OFF	LI_Unrel_G	132	seqrec	No	User	RGN Test	ON	No	1180								
A1IU5OP7BBZHZ7	Collector	1	199	2016-03-04T18:19:58-08:00	2	1	Stimuli/versionAstim.txt	Procedure/versionAproc.txt	Tetris		PUCK		PUCK	OFF	NPLI_AdHoc_G	252	seqrec	No	User	RGN Test	ON	No	810								
A1IU5OP7BBZHZ7	Collector	1	200	2016-03-04T18:20:00-08:00	2	1	Stimuli/versionAstim.txt	Procedure/versionAproc.txt	Tetris		ORANGE		ORANGE	OFF	CI_Cat_G	192	seqrec	No	User	RGN Test	ON	No	600								
A1IU5OP7BBZHZ7	Collector	1	201	2016-03-04T18:20:03-08:00	3	1	Stimuli/versionAstim.txt	Procedure/versionAproc.txt	Tetris		OCTOPUS		OCTOPUS	OFF	CI_Unrel_G	190	seqrec	No	User	RGN Test	ON	No	1030								
A1IU5OP7BBZHZ7	Collector	1	202	2016-03-04T18:20:05-08:00	2	1	Stimuli/versionAstim.txt	Procedure/versionAproc.txt	Tetris		WATER		WATER	OFF	NPCI_AdHoc_G	273	seqrec	No	User	RGN Test	ON	No	900								
A1IU5OP7BBZHZ7	Collector	1	203	2016-03-04T18:20:08-08:00	3	1	Stimuli/versionAstim.txt	Procedure/versionAproc.txt	Tetris		SHORE		SHORE	OFF	LI_Unrel_G	178	seqrec	No	User	RGN Test	ON	Yes	1390								
A1IU5OP7BBZHZ7	Collector	1	204	2016-03-04T18:20:11-08:00	3	1	Stimuli/versionAstim.txt	Procedure/versionAproc.txt	Tetris		NIGHT		NIGHT	OFF	NPCI_AdHoc_G	293	seqrec	No	User	RGN Test	ON	No	720								
A1IU5OP7BBZHZ7	Collector	1	205	2016-03-04T18:20:13-08:00	2	1	Stimuli/versionAstim.txt	Procedure/versionAproc.txt	Tetris		SPROUTS		SPROUTS	OFF	LI_AdHoc_G	129	seqrec	No	User	RGN Test	ON	Yes	980								
A1IU5OP7BBZHZ7	Collector	1	206	2016-03-04T18:20:16-08:00	3	1	Stimuli/versionAstim.txt	Procedure/versionAproc.txt	Tetris		PLANE		PLANE	OFF	NPCI_Cat_G	299	seqrec	No	User	RGN Test	ON	No	890								
A1IU5OP7BBZHZ7	Collector	1	207	2016-03-04T18:20:20-08:00	4	1	Stimuli/versionAstim.txt	Procedure/versionAproc.txt	Tetris		PIPE		PIPE	OFF	LI_Unrel_G	139	seqrec	No	User	RGN Test	ON	Yes	1640								
A1IU5OP7BBZHZ7	Collector	1	208	2016-03-04T18:20:22-08:00	2	1	Stimuli/versionAstim.txt	Procedure/versionAproc.txt	Tetris		THUNDER		THUNDER	OFF	CI_AdHoc_G	201	seqrec	No	User	RGN Test	ON	No	870								
A1IU5OP7BBZHZ7	Collector	1	209	2016-03-04T18:20:25-08:00	3	1	Stimuli/versionAstim.txt	Procedure/versionAproc.txt	Tetris		BABIES		BABIES	OFF	LI_AdHoc_G	159	seqrec	No	User	RGN Test	ON	Yes	1230								
A1IU5OP7BBZHZ7	Collector	1	210	2016-03-04T18:20:27-08:00	2	1	Stimuli/versionAstim.txt	Procedure/versionAproc.txt	Tetris		FIRE		FIRE	OFF	NPLI_Unrel_G	251	seqrec	No	User	RGN Test	ON	Yes	880								
A1IU5OP7BBZHZ7	Collector	1	211	2016-03-04T18:20:30-08:00	3	1	Stimuli/versionAstim.txt	Procedure/versionAproc.txt	Tetris		GHOUL		GHOUL	OFF	NPLI_Unrel_G	233	seqrec	No	User	RGN Test	ON	No	910								
A1IU5OP7BBZHZ7	Collector	1	212	2016-03-04T18:20:32-08:00	2	1	Stimuli/versionAstim.txt	Procedure/versionAproc.txt	Tetris		HOT CHOCOLATE		HOT CHOCOLATE	OFF	NPLI_AdHoc_G	216	seqrec	No	User	RGN Test	ON	No	920								
A1IU5OP7BBZHZ7	Collector	1	213	2016-03-04T18:20:35-08:00	3	1	Stimuli/versionAstim.txt	Procedure/versionAproc.txt	Tetris		STADIUM		STADIUM	OFF	LI_Unrel_G	174	seqrec	No	User	RGN Test	ON	Yes	1210								
A1IU5OP7BBZHZ7	Collector	1	214	2016-03-04T18:20:37-08:00	2	1	Stimuli/versionAstim.txt	Procedure/versionAproc.txt	Tetris		RAINBOW		RAINBOW	OFF	NPLI_Unrel_G	243	seqrec	No	User	RGN Test	ON	No	920								
A1IU5OP7BBZHZ7	Collector	1	215	2016-03-04T18:20:40-08:00	3	1	Stimuli/versionAstim.txt	Procedure/versionAproc.txt	Tetris		ELEPHANT		ELEPHANT	OFF	LI_Cat_G	163	seqrec	No	User	RGN Test	ON	Yes	960								
A1IU5OP7BBZHZ7	Collector	1	216	2016-03-04T18:20:42-08:00	2	1	Stimuli/versionAstim.txt	Procedure/versionAproc.txt	Tetris		PLUM		PLUM	OFF	CI_Cat_G	195	seqrec	No	User	RGN Test	ON	No	910								
A1IU5OP7BBZHZ7	Collector	1	217	2016-03-04T18:20:45-08:00	3	1	Stimuli/versionAstim.txt	Procedure/versionAproc.txt	Tetris		TOWN		TOWN	OFF	CI_Unrel_G	187	seqrec	No	User	RGN Test	ON	No	780								
A1IU5OP7BBZHZ7	Collector	1	218	2016-03-04T18:20:47-08:00	2	1	Stimuli/versionAstim.txt	Procedure/versionAproc.txt	Tetris		LAVA		LAVA	OFF	NPLI_AdHoc_G	218	seqrec	No	User	RGN Test	ON	No	850								
A1IU5OP7BBZHZ7	Collector	1	219	2016-03-04T18:20:50-08:00	3	1	Stimuli/versionAstim.txt	Procedure/versionAproc.txt	Tetris		PEAR		PEAR	OFF	LI_Cat_G	142	seqrec	No	User	RGN Test	ON	Yes	900								
A1IU5OP7BBZHZ7	Collector	1	220	2016-03-04T18:20:52-08:00	2	1	Stimuli/versionAstim.txt	Procedure/versionAproc.txt	Tetris		TOMATO		TOMATO	OFF	NPCI_Cat_G	279	seqrec	No	User	RGN Test	ON	No	1220								
A1IU5OP7BBZHZ7	Collector	1	221	2016-03-04T18:20:56-08:00	4	1	Stimuli/versionAstim.txt	Procedure/versionAproc.txt	Tetris		LIMOUSINE		LIMOUSINE	OFF	NPLI_AdHoc_G	256	seqrec	No	User	RGN Test	ON	No	1700								
A1IU5OP7BBZHZ7	Collector	1	222	2016-03-04T18:21:00-08:00	4	1	Stimuli/versionAstim.txt	Procedure/versionAproc.txt	Tetris		PUPPY		PUPPY	OFF	NPLI_Unrel_G	245	seqrec	No	User	RGN Test	ON	No	1890								
A1IU5OP7BBZHZ7	Collector	1	223	2016-03-04T18:21:02-08:00	2	1	Stimuli/versionAstim.txt	Procedure/versionAproc.txt	Tetris		TRUMPET		TRUMPET	OFF	LI_AdHoc_G	155	seqrec	No	User	RGN Test	ON	No	940								
A1IU5OP7BBZHZ7	Collector	1	224	2016-03-04T18:21:05-08:00	3	1	Stimuli/versionAstim.txt	Procedure/versionAproc.txt	Tetris		RAIN 		RAIN 	OFF	NPCI_AdHoc_G	275	seqrec	No	User	RGN Test	ON	No	980								
A1IU5OP7BBZHZ7	Collector	1	225	2016-03-04T18:21:07-08:00	2	1	Stimuli/versionAstim.txt	Procedure/versionAproc.txt	Tetris		VISE		VISE	OFF	NPLI_Cat_G	270	seqrec	No	User	RGN Test	ON	No	580								
A1IU5OP7BBZHZ7	Collector	1	226	2016-03-04T18:21:09-08:00	2	1	Stimuli/versionAstim.txt	Procedure/versionAproc.txt	Tetris		CAGE		CAGE	OFF	CI_Unrel_G	207	seqrec	No	User	RGN Test	ON	No	680								
A1IU5OP7BBZHZ7	Collector	1	227	2016-03-04T18:21:12-08:00	3	1	Stimuli/versionAstim.txt	Procedure/versionAproc.txt	Tetris		CANTALOUPE		CANTALOUPE	OFF	LI_Cat_G	147	seqrec	No	User	RGN Test	ON	Yes	1140								
A1IU5OP7BBZHZ7	Collector	1	228	2016-03-04T18:21:14-08:00	2	1	Stimuli/versionAstim.txt	Procedure/versionAproc.txt	Tetris		TANGERINE		TANGERINE	OFF	LI_Cat_G	144	seqrec	No	User	RGN Test	ON	No	1020								
A1IU5OP7BBZHZ7	Collector	1	229	2016-03-04T18:21:17-08:00	3	1	Stimuli/versionAstim.txt	Procedure/versionAproc.txt	Tetris		BUFFALO		BUFFALO	OFF	LI_Cat_G	171	seqrec	No	User	RGN Test	ON	Yes	910								
A1IU5OP7BBZHZ7	Collector	1	230	2016-03-04T18:21:20-08:00	3	1	Stimuli/versionAstim.txt	Procedure/versionAproc.txt	Tetris		CHAIN SAW		CHAIN SAW	OFF	LI_AdHoc_G	154	seqrec	No	User	RGN Test	ON	Yes	1200								
A1IU5OP7BBZHZ7	Collector	1	231	2016-03-04T18:21:22-08:00	2	1	Stimuli/versionAstim.txt	Procedure/versionAproc.txt	Tetris		POISON		POISON	OFF	LI_Unrel_G	176	seqrec	No	User	RGN Test	ON	Yes	980								
A1IU5OP7BBZHZ7	Collector	1	232	2016-03-04T18:21:25-08:00	3	1	Stimuli/versionAstim.txt	Procedure/versionAproc.txt	Tetris		LATHE		LATHE	OFF	NPLI_Cat_G	266	seqrec	No	User	RGN Test	ON	No	860								
A1IU5OP7BBZHZ7	Collector	1	233	2016-03-04T18:21:27-08:00	2	1	Stimuli/versionAstim.txt	Procedure/versionAproc.txt	Tetris		BROCCOLI		BROCCOLI	OFF	CI_AdHoc_G	185	seqrec	No	User	RGN Test	ON	No	1040								
A1IU5OP7BBZHZ7	Collector	1	234	2016-03-04T18:21:29-08:00	2	1	Stimuli/versionAstim.txt	Procedure/versionAproc.txt	Tetris		YARD		YARD	OFF	NPLI_Unrel_G	237	seqrec	No	User	RGN Test	ON	No	570								
A1IU5OP7BBZHZ7	Collector	1	235	2016-03-04T18:21:32-08:00	3	1	Stimuli/versionAstim.txt	Procedure/versionAproc.txt	Tetris		FOX		FOX	OFF	LI_Cat_G	170	seqrec	No	User	RGN Test	ON	No	690								
A1IU5OP7BBZHZ7	Collector	1	236	2016-03-04T18:21:34-08:00	2	1	Stimuli/versionAstim.txt	Procedure/versionAproc.txt	Tetris		LEMON		LEMON	OFF	CI_Cat_G	196	seqrec	No	User	RGN Test	ON	No	860								
A1IU5OP7BBZHZ7	Collector	1	237	2016-03-04T18:21:37-08:00	3	1	Stimuli/versionAstim.txt	Procedure/versionAproc.txt	Tetris		GASOLINE		GASOLINE	OFF	NPLI_AdHoc_G	219	seqrec	No	User	RGN Test	ON	Yes	1210								
A1IU5OP7BBZHZ7	Collector	1	238	2016-03-04T18:21:39-08:00	2	1	Stimuli/versionAstim.txt	Procedure/versionAproc.txt	Tetris		SALAD		SALAD	OFF	LI_AdHoc_G	131	seqrec	No	User	RGN Test	ON	Yes	720								
A1IU5OP7BBZHZ7	Collector	1	239	2016-03-04T18:21:42-08:00	3	1	Stimuli/versionAstim.txt	Procedure/versionAproc.txt	Tetris		LICORICE		LICORICE	OFF	NPLI_AdHoc_G	253	seqrec	No	User	RGN Test	ON	No	960								
A1IU5OP7BBZHZ7	Collector	1	240	2016-03-04T18:21:44-08:00	2	1	Stimuli/versionAstim.txt	Procedure/versionAproc.txt	Tetris		MUD		MUD	OFF	CI_Unrel_G	209	seqrec	No	User	RGN Test	ON	No	570								
A1IU5OP7BBZHZ7	Collector	1	241	2016-03-04T18:21:46-08:00	2	1	Stimuli/versionAstim.txt	Procedure/versionAproc.txt	Tetris		GOAT		GOAT	OFF	LI_Cat_G	166	seqrec	No	User	RGN Test	ON	No	580								
A1IU5OP7BBZHZ7	Collector	1	242	2016-03-04T18:21:48-08:00	2	1	Stimuli/versionAstim.txt	Procedure/versionAproc.txt	Tetris		WHIP		WHIP	OFF	NPLI_Unrel_G	250	seqrec	No	User	RGN Test	ON	No	780								
A1IU5OP7BBZHZ7	Collector	1	243	2016-03-04T18:21:51-08:00	3	1	Stimuli/versionAstim.txt	Procedure/versionAproc.txt	Tetris		ASPHALT		ASPHALT	OFF	NPLI_AdHoc_G	254	seqrec	No	User	RGN Test	ON	No	750								
A1IU5OP7BBZHZ7	Collector	1	244	2016-03-04T18:21:53-08:00	2	1	Stimuli/versionAstim.txt	Procedure/versionAproc.txt	Tetris		GREEN BEANS		GREEN BEANS	OFF	NPCI_Cat_G	278	seqrec	No	User	RGN Test	ON	No	880								
A1IU5OP7BBZHZ7	Collector	1	245	2016-03-04T18:21:56-08:00	3	1	Stimuli/versionAstim.txt	Procedure/versionAproc.txt	Tetris		SIREN		SIREN	OFF	CI_AdHoc_G	199	seqrec	No	User	RGN Test	ON	No	780								
A1IU5OP7BBZHZ7	Collector	1	246	2016-03-04T18:21:58-08:00	2	1	Stimuli/versionAstim.txt	Procedure/versionAproc.txt	Tetris		HINGE		HINGE	OFF	NPLI_Cat_G	271	seqrec	No	User	RGN Test	ON	No	1240								
A1IU5OP7BBZHZ7	Collector	1	247	2016-03-04T18:22:01-08:00	3	1	Stimuli/versionAstim.txt	Procedure/versionAproc.txt	Tetris		SPINACH		SPINACH	OFF	NPCI_Cat_G	280	seqrec	No	User	RGN Test	ON	No	970								
A1IU5OP7BBZHZ7	Collector	1	248	2016-03-04T18:22:04-08:00	3	1	Stimuli/versionAstim.txt	Procedure/versionAproc.txt	Tetris		SUNRISE		SUNRISE	OFF	LI_Unrel_G	181	seqrec	No	User	RGN Test	ON	Yes	1170								
A1IU5OP7BBZHZ7	Collector	1	249	2016-03-04T18:22:06-08:00	2	1	Stimuli/versionAstim.txt	Procedure/versionAproc.txt	Tetris		JUNGLE		JUNGLE	OFF	LI_AdHoc_G	126	seqrec	No	User	RGN Test	ON	No	1050								
A1IU5OP7BBZHZ7	Collector	1	250	2016-03-04T18:22:09-08:00	3	1	Stimuli/versionAstim.txt	Procedure/versionAproc.txt	Tetris		TURNIP		TURNIP	OFF	NPLI_Cat_G	228	seqrec	No	User	RGN Test	ON	No	800								
A1IU5OP7BBZHZ7	Collector	1	251	2016-03-04T18:22:11-08:00	2	1	Stimuli/versionAstim.txt	Procedure/versionAproc.txt	Tetris		CREAM		CREAM	OFF	NPLI_AdHoc_G	221	seqrec	No	User	RGN Test	ON	No	800								
A1IU5OP7BBZHZ7	Collector	1	252	2016-03-04T18:22:15-08:00	4	1	Stimuli/versionAstim.txt	Procedure/versionAproc.txt	Tetris		HUCKLEBERRY		HUCKLEBERRY	OFF	LI_Cat_G	151	seqrec	No	User	RGN Test	ON	No	1560								
A1IU5OP7BBZHZ7	Collector	1	253	2016-03-04T18:22:17-08:00	2	1	Stimuli/versionAstim.txt	Procedure/versionAproc.txt	Tetris		WITCH		WITCH	OFF	NPLI_AdHoc_G	255	seqrec	No	User	RGN Test	ON	No	800								
A1IU5OP7BBZHZ7	Collector	1	254	2016-03-04T18:22:20-08:00	3	1	Stimuli/versionAstim.txt	Procedure/versionAproc.txt	Tetris		DONKEY		DONKEY	OFF	LI_Cat_G	168	seqrec	No	User	RGN Test	ON	Yes	970								
A1IU5OP7BBZHZ7	Collector	1	255	2016-03-04T18:22:22-08:00	2	1	Stimuli/versionAstim.txt	Procedure/versionAproc.txt	Tetris		GRASS		GRASS	OFF	CI_AdHoc_G	182	seqrec	No	User	RGN Test	ON	No	1350								
A1IU5OP7BBZHZ7	Collector	1	256	2016-03-04T18:22:25-08:00	3	1	Stimuli/versionAstim.txt	Procedure/versionAproc.txt	Tetris		RAVEN		RAVEN	OFF	NPCI_AdHoc_G	295	seqrec	No	User	RGN Test	ON	Yes	1320								
A1IU5OP7BBZHZ7	Collector	1	257	2016-03-04T18:22:27-08:00	2	1	Stimuli/versionAstim.txt	Procedure/versionAproc.txt	Tetris		CLOCK		CLOCK	OFF	LI_Unrel_G	172	seqrec	No	User	RGN Test	ON	Yes	580								
A1IU5OP7BBZHZ7	Collector	1	258	2016-03-04T18:22:30-08:00	3	1	Stimuli/versionAstim.txt	Procedure/versionAproc.txt	Tetris		TEE		TEE	OFF	NPLI_Unrel_G	232	seqrec	No	User	RGN Test	ON	No	910								
A1IU5OP7BBZHZ7	Collector	1	259	2016-03-04T18:22:32-08:00	2	1	Stimuli/versionAstim.txt	Procedure/versionAproc.txt	Tetris		LAWNMOWER		LAWNMOWER	OFF	CI_AdHoc_G	200	seqrec	No	User	RGN Test	ON	No	970								
A1IU5OP7BBZHZ7	Collector	1	260	2016-03-04T18:22:35-08:00	3	1	Stimuli/versionAstim.txt	Procedure/versionAproc.txt	Tetris		PEA		PEA	OFF	NPCI_Cat_G	277	seqrec	No	User	RGN Test	ON	No	780								
A1IU5OP7BBZHZ7	Collector	1	261	2016-03-04T18:22:37-08:00	2	1	Stimuli/versionAstim.txt	Procedure/versionAproc.txt	Tetris		COW		COW	OFF	CI_Cat_G	203	seqrec	No	User	RGN Test	ON	No	920								
A1IU5OP7BBZHZ7	Collector	1	262	2016-03-04T18:22:40-08:00	3	1	Stimuli/versionAstim.txt	Procedure/versionAproc.txt	Tetris		SHEEP		SHEEP	OFF	LI_Cat_G	165	seqrec	No	User	RGN Test	ON	Yes	1480								
A1IU5OP7BBZHZ7	Collector	1	263	2016-03-04T18:22:43-08:00	3	1	Stimuli/versionAstim.txt	Procedure/versionAproc.txt	Tetris		HORSE		HORSE	OFF	LI_Cat_G	162	seqrec	No	User	RGN Test	ON	No	1090								
A1IU5OP7BBZHZ7	Collector	1	264	2016-03-04T18:22:45-08:00	2	1	Stimuli/versionAstim.txt	Procedure/versionAproc.txt	Tetris		SPIKE		SPIKE	OFF	NPLI_Unrel_G	234	seqrec	No	User	RGN Test	ON	No	810								
A1IU5OP7BBZHZ7	Collector	1	265	2016-03-04T18:22:47-08:00	2	1	Stimuli/versionAstim.txt	Procedure/versionAproc.txt	Tetris		LEVEL		LEVEL	OFF	NPLI_Cat_G	262	seqrec	No	User	RGN Test	ON	No	900								
A1IU5OP7BBZHZ7	Collector	1	266	2016-03-04T18:22:50-08:00	3	1	Stimuli/versionAstim.txt	Procedure/versionAproc.txt	Tetris		COMEDY		COMEDY	OFF	NPCI_Unrel_G	286	seqrec	No	User	RGN Test	ON	No	850								
A1IU5OP7BBZHZ7	Collector	1	267	2016-03-04T18:22:52-08:00	2	1	Stimuli/versionAstim.txt	Procedure/versionAproc.txt	Tetris		PUMPKIN		PUMPKIN	OFF	NPLI_Cat_G	230	seqrec	No	User	RGN Test	ON	No	1020								
A1IU5OP7BBZHZ7	Collector	1	268	2016-03-04T18:22:55-08:00	3	1	Stimuli/versionAstim.txt	Procedure/versionAproc.txt	Tetris		NECTARINE		NECTARINE	OFF	LI_Cat_G	150	seqrec	No	User	RGN Test	ON	No	850								
A1IU5OP7BBZHZ7	Collector	1	269	2016-03-04T18:22:57-08:00	2	1	Stimuli/versionAstim.txt	Procedure/versionAproc.txt	Tetris		MOUSE		MOUSE	OFF	CI_Cat_G	206	seqrec	No	User	RGN Test	ON	No	770								
A1IU5OP7BBZHZ7	Collector	1	270	2016-03-04T18:23:00-08:00	3	1	Stimuli/versionAstim.txt	Procedure/versionAproc.txt	Tetris		PYRAMID		PYRAMID	OFF	LI_Unrel_G	133	seqrec	No	User	RGN Test	ON	No	1510								
A1IU5OP7BBZHZ7	Collector	1	271	2016-03-04T18:23:02-08:00	2	1	Stimuli/versionAstim.txt	Procedure/versionAproc.txt	Tetris		VINEGAR		VINEGAR	OFF	NPLI_AdHoc_G	220	seqrec	No	User	RGN Test	ON	No	930								
A1IU5OP7BBZHZ7	Collector	1	272	2016-03-04T18:23:04-08:00	2	1	Stimuli/versionAstim.txt	Procedure/versionAproc.txt	Tetris		MERCURY		MERCURY	OFF	NPLI_AdHoc_G	213	seqrec	No	User	RGN Test	ON	No	620								
A1IU5OP7BBZHZ7	Collector	1	273	2016-03-04T18:23:07-08:00	3	1	Stimuli/versionAstim.txt	Procedure/versionAproc.txt	Tetris		HOOK		HOOK	OFF	LI_Unrel_G	134	seqrec	No	User	RGN Test	ON	Yes	1010								
A1IU5OP7BBZHZ7	Collector	1	274	2016-03-04T18:23:11-08:00	4	1	Stimuli/versionAstim.txt	Procedure/versionAproc.txt	Tetris		WINE		WINE	OFF	NPLI_AdHoc_G	215	seqrec	No	User	RGN Test	ON	No	1250								
A1IU5OP7BBZHZ7	Collector	1	275	2016-03-04T18:23:14-08:00	3	1	Stimuli/versionAstim.txt	Procedure/versionAproc.txt	Tetris		SNAKE		SNAKE	OFF	LI_AdHoc_G	128	seqrec	No	User	RGN Test	ON	No	920								
A1IU5OP7BBZHZ7	Collector	1	276	2016-03-04T18:23:16-08:00	2	1	Stimuli/versionAstim.txt	Procedure/versionAproc.txt	Tetris		LENS		LENS	OFF	NPCI_Unrel_G	291	seqrec	No	User	RGN Test	ON	No	720								
A1IU5OP7BBZHZ7	Collector	1	277	2016-03-04T18:23:20-08:00	4	1	Stimuli/versionAstim.txt	Procedure/versionAproc.txt	Tetris		FATHER		FATHER	OFF	LI_Unrel_G	175	seqrec	No	User	RGN Test	ON	Yes	2210								
A1IU5OP7BBZHZ7	Collector	1	278	2016-03-04T18:23:23-08:00	3	1	Stimuli/versionAstim.txt	Procedure/versionAproc.txt	Tetris		VAULT		VAULT	OFF	NPCI_Unrel_G	289	seqrec	No	User	RGN Test	ON	No	930								
A1IU5OP7BBZHZ7	Collector	1	279	2016-03-04T18:23:26-08:00	3	1	Stimuli/versionAstim.txt	Procedure/versionAproc.txt	Tetris		SAWHORSE		SAWHORSE	OFF	NPLI_Cat_G	265	seqrec	No	User	RGN Test	ON	No	1020								
A1IU5OP7BBZHZ7	Collector	1	280	2016-03-04T18:23:28-08:00	2	1	Stimuli/versionAstim.txt	Procedure/versionAproc.txt	Tetris		EGGPLANT		EGGPLANT	OFF	NPLI_Cat_G	231	seqrec	No	User	RGN Test	ON	No	1130								
A1IU5OP7BBZHZ7	Collector	1	281	2016-03-04T18:23:32-08:00	4	1	Stimuli/versionAstim.txt	Procedure/versionAproc.txt	Tetris		MANHOLE		MANHOLE	OFF	LI_Unrel_G	141	seqrec	No	User	RGN Test	ON	Yes	2050								
A1IU5OP7BBZHZ7	Collector	1	282	2016-03-04T18:23:35-08:00	3	1	Stimuli/versionAstim.txt	Procedure/versionAproc.txt	Tetris		PEDAL		PEDAL	OFF	CI_Unrel_G	191	seqrec	No	User	RGN Test	ON	No	880								
A1IU5OP7BBZHZ7	Collector	1	283	2016-03-04T18:23:37-08:00	2	1	Stimuli/versionAstim.txt	Procedure/versionAproc.txt	Tetris		ISLAND		ISLAND	OFF	NPCI_Unrel_G	284	seqrec	No	User	RGN Test	ON	No	1160								
A1IU5OP7BBZHZ7	Collector	1	284	2016-03-04T18:23:40-08:00	3	1	Stimuli/versionAstim.txt	Procedure/versionAproc.txt	Tetris		WHITE		WHITE	OFF	NPCI_Unrel_G	288	seqrec	No	User	RGN Test	ON	No	1260								
A1IU5OP7BBZHZ7	Collector	1	285	2016-03-04T18:23:43-08:00	3	1	Stimuli/versionAstim.txt	Procedure/versionAproc.txt	Tetris		SCREWS		SCREWS	OFF	NPLI_Cat_G	264	seqrec	No	User	RGN Test	ON	No	1400								
A1IU5OP7BBZHZ7	Collector	1	286	2016-03-04T18:23:46-08:00	3	1	Stimuli/versionAstim.txt	Procedure/versionAproc.txt	Tetris		COAST		COAST	OFF	CI_Unrel_G	208	seqrec	No	User	RGN Test	ON	No	1010								
A1IU5OP7BBZHZ7	Collector	1	287	2016-03-04T18:23:48-08:00	2	1	Stimuli/versionAstim.txt	Procedure/versionAproc.txt	Tetris		CAT		CAT	OFF	CI_Cat_G	202	seqrec	No	User	RGN Test	ON	No	1060								
A1IU5OP7BBZHZ7	Collector	1	288	2016-03-04T18:23:51-08:00	3	1	Stimuli/versionAstim.txt	Procedure/versionAproc.txt	Tetris		ONION		ONION	OFF	NPLI_Cat_G	227	seqrec	No	User	RGN Test	ON	No	1330								
A1IU5OP7BBZHZ7	Collector	1	289	2016-03-04T18:23:54-08:00	3	1	Stimuli/versionAstim.txt	Procedure/versionAproc.txt	Tetris		BOMB		BOMB	OFF	LI_AdHoc_G	161	seqrec	No	User	RGN Test	ON	Yes	1450								
A1IU5OP7BBZHZ7	Collector	1	290	2016-03-04T18:23:57-08:00	3	1	Stimuli/versionAstim.txt	Procedure/versionAproc.txt	Tetris		SQUIRREL		SQUIRREL	OFF	LI_Cat_G	167	seqrec	No	User	RGN Test	ON	Yes	730								
A1IU5OP7BBZHZ7	Collector	1	291	2016-03-04T18:24:00-08:00	3	1	Stimuli/versionAstim.txt	Procedure/versionAproc.txt	Tetris		SCREWDRIVER		SCREWDRIVER	OFF	NPCI_Cat_G	298	seqrec	No	User	RGN Test	ON	Yes	1550								
A1IU5OP7BBZHZ7	Collector	1	292	2016-03-04T18:24:03-08:00	3	1	Stimuli/versionAstim.txt	Procedure/versionAproc.txt	Tetris		CANISTER		CANISTER	OFF	NPLI_Unrel_G	238	seqrec	No	User	RGN Test	ON	No	1280								
A1IU5OP7BBZHZ7	Collector	1	293	2016-03-04T18:24:05-08:00	2	1	Stimuli/versionAstim.txt	Procedure/versionAproc.txt	Tetris		YELL		YELL	OFF	LI_AdHoc_G	152	seqrec	No	User	RGN Test	ON	Yes	1030								
A1IU5OP7BBZHZ7	Collector	1	294	2016-03-04T18:24:08-08:00	3	1	Stimuli/versionAstim.txt	Procedure/versionAproc.txt	Tetris		WRENCH		WRENCH	OFF	NPLI_Cat_G	263	seqrec	No	User	RGN Test	ON	No	1150								
A1IU5OP7BBZHZ7	Collector	1	295	2016-03-04T18:24:10-08:00	2	1	Stimuli/versionAstim.txt	Procedure/versionAproc.txt	Tetris		VALLEY		VALLEY	OFF	NPCI_Unrel_G	283	seqrec	No	User	RGN Test	ON	No	780								
A1IU5OP7BBZHZ7	Collector	1	296	2016-03-04T18:24:13-08:00	3	1	Stimuli/versionAstim.txt	Procedure/versionAproc.txt	Tetris		AWL		AWL	OFF	NPLI_Cat_G	267	seqrec	No	User	RGN Test	ON	No	710								
A1IU5OP7BBZHZ7	Collector	1	297	2016-03-04T18:24:15-08:00	2	1	Stimuli/versionAstim.txt	Procedure/versionAproc.txt	Tetris		INCENSE		INCENSE	OFF	NPLI_Unrel_G	240	seqrec	No	User	RGN Test	ON	No	890								
A1IU5OP7BBZHZ7	Collector	1	298	2016-03-04T18:24:18-08:00	3	1	Stimuli/versionAstim.txt	Procedure/versionAproc.txt	Tetris		WRECK		WRECK	OFF	NPLI_Unrel_G	242	seqrec	No	User	RGN Test	ON	Yes	1460								
A1IU5OP7BBZHZ7	Collector	1	299	2016-03-04T18:24:21-08:00	3	1	Stimuli/versionAstim.txt	Procedure/versionAproc.txt	Tetris		JACKHAMMER		JACKHAMMER	OFF	CI_AdHoc_G	197	seqrec	No	User	RGN Test	ON	No	1420								
A1IU5OP7BBZHZ7	Collector	1	300	2016-03-04T18:24:23-08:00	2	1	Stimuli/versionAstim.txt	Procedure/versionAproc.txt	Tetris		MILK		MILK	OFF	NPCI_AdHoc_G	276	seqrec	No	User	RGN Test	ON	No	720								
A1IU5OP7BBZHZ7	Collector	1	301	2016-03-04T18:24:26-08:00	3	1	Stimuli/versionAstim.txt	Procedure/versionAproc.txt	Tetris		DIAGRAM		DIAGRAM	OFF	NPCI_Unrel_G	282	seqrec	No	User	RGN Test	ON	No	670								
A1IU5OP7BBZHZ7	Collector	1	302	2016-03-04T18:24:28-08:00	2	1	Stimuli/versionAstim.txt	Procedure/versionAproc.txt	Tetris		COAL		COAL	OFF	NPCI_AdHoc_G	292	seqrec	No	User	RGN Test	ON	No	810								
A1IU5OP7BBZHZ7	Collector	1	303	2016-03-04T18:24:34-08:00	6	1	Stimuli/versionAstim.txt	Procedure/versionAproc.txt	Tetris		LIMA BEANS		LIMA BEANS	OFF	NPLI_Cat_G	226	seqrec	No	User	RGN Test	ON	No	3720								
A1IU5OP7BBZHZ7	Collector	1	304	2016-03-04T18:24:36-08:00	2	1	Stimuli/versionAstim.txt	Procedure/versionAproc.txt	Tetris		WEDGE		WEDGE	OFF	NPLI_Cat_G	269	seqrec	No	User	RGN Test	ON	No	820								
A1IU5OP7BBZHZ7	Collector	1	305	2016-03-04T18:24:39-08:00	3	1	Stimuli/versionAstim.txt	Procedure/versionAproc.txt	Tetris		TREAT		TREAT	OFF	NPCI_Unrel_G	287	seqrec	No	User	RGN Test	ON	No	930								
A1IU5OP7BBZHZ7	Collector	1	306	2016-03-04T18:24:42-08:00	3	1	Stimuli/versionAstim.txt	Procedure/versionAproc.txt	Tetris		CAKE		CAKE	OFF	LI_Unrel_G	173	seqrec	No	User	RGN Test	ON	Yes	1250								
A1IU5OP7BBZHZ7	Collector	1	307	2016-03-04T18:24:44-08:00	2	1	Stimuli/versionAstim.txt	Procedure/versionAproc.txt	Tetris		SODA		SODA	OFF	NPLI_AdHoc_G	212	seqrec	No	User	RGN Test	ON	No	950								
A1IU5OP7BBZHZ7	Collector	1	308	2016-03-04T18:24:47-08:00	3	1	Stimuli/versionAstim.txt	Procedure/versionAproc.txt	Tetris		CABBAGE		CABBAGE	OFF	NPLI_Cat_G	224	seqrec	No	User	RGN Test	ON	No	820								
A1IU5OP7BBZHZ7	Collector	1	309	2016-03-04T18:24:50-08:00	3	1	Stimuli/versionAstim.txt	Procedure/versionAproc.txt	Tetris		ASPARAGUS		ASPARAGUS	OFF	NPLI_Cat_G	223	seqrec	No	User	RGN Test	ON	No	1430								
A1IU5OP7BBZHZ7	Collector	1	310	2016-03-04T18:24:52-08:00	2	1	Stimuli/versionAstim.txt	Procedure/versionAproc.txt	Tetris		BLUEBERRY		BLUEBERRY	OFF	LI_Cat_G	148	seqrec	No	User	RGN Test	ON	Yes	840								
A1IU5OP7BBZHZ7	Collector	1	311	2016-03-04T18:24:55-08:00	3	1	Stimuli/versionAstim.txt	Procedure/versionAproc.txt	Tetris		LIME		LIME	OFF	LI_AdHoc_G	130	seqrec	No	User	RGN Test	ON	No	930								
A1IU5OP7BBZHZ7	Collector	1	312	2016-03-04T18:24:57-08:00	2	1	Stimuli/versionAstim.txt	Procedure/versionAproc.txt	Tetris		BAT		BAT	OFF	NPCI_AdHoc_G	294	seqrec	No	User	RGN Test	ON	No	840								
A1IU5OP7BBZHZ7	Collector	1	313	2016-03-04T18:24:59-08:00	2	1	Stimuli/versionAstim.txt	Procedure/versionAproc.txt	Tetris		FUR		FUR	OFF	CI_Unrel_G	210	seqrec	No	User	RGN Test	ON	No	790								
A1IU5OP7BBZHZ7	Collector	1	314	2016-03-04T18:25:02-08:00	3	1	Stimuli/versionAstim.txt	Procedure/versionAproc.txt	Tetris		PINEAPPLE		PINEAPPLE	OFF	LI_Cat_G	145	seqrec	No	User	RGN Test	ON	Yes	970								
A1IU5OP7BBZHZ7	Collector	1	315	2016-03-04T18:25:04-08:00	2	1	Stimuli/versionAstim.txt	Procedure/versionAproc.txt	Tetris		CRYPT		CRYPT	OFF	LI_Unrel_G	135	seqrec	No	User	RGN Test	ON	No	810								
A1IU5OP7BBZHZ7	Collector	1	316	2016-03-04T18:25:07-08:00	3	1	Stimuli/versionAstim.txt	Procedure/versionAproc.txt	Tetris		LEOPARD		LEOPARD	OFF	LI_Cat_G	169	seqrec	No	User	RGN Test	ON	Yes	1150								
A1IU5OP7BBZHZ7	Collector	1	317	2016-03-04T18:25:09-08:00	2	1	Stimuli/versionAstim.txt	Procedure/versionAproc.txt	Tetris		PLIERS		PLIERS	OFF	NPCI_Cat_G	300	seqrec	No	User	RGN Test	ON	No	840								
A1IU5OP7BBZHZ7	Collector	1	318	2016-03-04T18:25:12-08:00	3	1	Stimuli/versionAstim.txt	Procedure/versionAproc.txt	Tetris		RAT		RAT	OFF	LI_Cat_G	164	seqrec	No	User	RGN Test	ON	Yes	900								
A1IU5OP7BBZHZ7	Collector	1	319	2016-03-04T18:25:14-08:00	2	1	Stimuli/versionAstim.txt	Procedure/versionAproc.txt	Tetris		DECK		DECK	OFF	LI_Unrel_G	180	seqrec	No	User	RGN Test	ON	Yes	880								
A1IU5OP7BBZHZ7	Collector	1	320	2016-03-04T18:25:17-08:00	3	1	Stimuli/versionAstim.txt	Procedure/versionAproc.txt	Tetris		ART		ART	OFF	CI_Unrel_G	211	seqrec	No	User	RGN Test	ON	No	830								
A1IU5OP7BBZHZ7	Collector	1	321	2016-03-04T18:29:11-08:00	234	1	Stimuli/versionAstim.txt	Procedure/versionAproc.txt	Tetris		n/a	n/a	n/a	n/a	n/a	0	Instruct	N/A	User	Click the button below to continue.	OFF		232650								
A1IU5OP7BBZHZ7	Collector	1	322	2016-03-04T18:29:30-08:00	19	1	Stimuli/versionAstim.txt	Procedure/versionAproc.txt	Tetris		n/a	n/a	n/a	n/a	n/a	0	Instruct	N/A	User	You again will be presented with 6 lists of words, each containing 20 words, but now you will complete a recall memory test following each list. After each list is presented, you will type in the words you saw on that list into a dialog box. You will have 1 minute to recall each list. The computer will prompt you when your time is up. Click the button below to begin the first list.	OFF		16420								
A1IU5OP7BBZHZ7	Collector	1	323	2016-03-04T18:29:34-08:00	4	1	Stimuli/versionAstim.txt	Procedure/versionAproc.txt	Tetris		NUTMEG		NUTMEG	OFF	Cat_Recall_L1	306	Study	No	3	Cat_Recall_L1	ON		3000								
A1IU5OP7BBZHZ7	Collector	1	324	2016-03-04T18:29:39-08:00	5	1	Stimuli/versionAstim.txt	Procedure/versionAproc.txt	Tetris		VANILLA		VANILLA	OFF	Cat_Recall_L1	303	Study	No	3	Cat_Recall_L1	ON		3000								
A1IU5OP7BBZHZ7	Collector	1	325	2016-03-04T18:29:44-08:00	5	1	Stimuli/versionAstim.txt	Procedure/versionAproc.txt	Tetris		THYME		THYME	OFF	Cat_Recall_L1	308	Study	No	3	Cat_Recall_L1	ON		3000								
A1IU5OP7BBZHZ7	Collector	1	326	2016-03-04T18:29:48-08:00	4	1	Stimuli/versionAstim.txt	Procedure/versionAproc.txt	Tetris		CUMIN		CUMIN	OFF	Cat_Recall_L1	316	Study	No	3	Cat_Recall_L1	ON		3000								
A1IU5OP7BBZHZ7	Collector	1	327	2016-03-04T18:29:53-08:00	5	1	Stimuli/versionAstim.txt	Procedure/versionAproc.txt	Tetris		ONION SALT		ONION SALT	OFF	Cat_Recall_L1	307	Study	No	3	Cat_Recall_L1	ON		3000								
A1IU5OP7BBZHZ7	Collector	1	328	2016-03-04T18:29:58-08:00	5	1	Stimuli/versionAstim.txt	Procedure/versionAproc.txt	Tetris		CHIVES		CHIVES	OFF	Cat_Recall_L1	314	Study	No	3	Cat_Recall_L1	ON		3000								
A1IU5OP7BBZHZ7	Collector	1	329	2016-03-04T18:30:03-08:00	5	1	Stimuli/versionAstim.txt	Procedure/versionAproc.txt	Tetris		BASIL		BASIL	OFF	Cat_Recall_L1	320	Study	No	3	Cat_Recall_L1	ON		3000								
A1IU5OP7BBZHZ7	Collector	1	330	2016-03-04T18:30:08-08:00	5	1	Stimuli/versionAstim.txt	Procedure/versionAproc.txt	Tetris		CURRY		CURRY	OFF	Cat_Recall_L1	311	Study	No	3	Cat_Recall_L1	ON		3000								
A1IU5OP7BBZHZ7	Collector	1	331	2016-03-04T18:30:13-08:00	5	1	Stimuli/versionAstim.txt	Procedure/versionAproc.txt	Tetris		HORSERADISH		HORSERADISH	OFF	Cat_Recall_L1	318	Study	No	3	Cat_Recall_L1	ON		3000								
A1IU5OP7BBZHZ7	Collector	1	332	2016-03-04T18:30:18-08:00	5	1	Stimuli/versionAstim.txt	Procedure/versionAproc.txt	Tetris		BAY LEAVES		BAY LEAVES	OFF	Cat_Recall_L1	309	Study	No	3	Cat_Recall_L1	ON		3000								
A1IU5OP7BBZHZ7	Collector	1	333	2016-03-04T18:30:22-08:00	4	1	Stimuli/versionAstim.txt	Procedure/versionAproc.txt	Tetris		TURMERIC		TURMERIC	OFF	Cat_Recall_L1	321	Study	No	3	Cat_Recall_L1	ON		3000								
A1IU5OP7BBZHZ7	Collector	1	334	2016-03-04T18:30:27-08:00	5	1	Stimuli/versionAstim.txt	Procedure/versionAproc.txt	Tetris		CELERY SEED		CELERY SEED	OFF	Cat_Recall_L1	319	Study	No	3	Cat_Recall_L1	ON		3000								
A1IU5OP7BBZHZ7	Collector	1	335	2016-03-04T18:30:32-08:00	5	1	Stimuli/versionAstim.txt	Procedure/versionAproc.txt	Tetris		SAGE		SAGE	OFF	Cat_Recall_L1	312	Study	No	3	Cat_Recall_L1	ON		3000								
A1IU5OP7BBZHZ7	Collector	1	336	2016-03-04T18:30:37-08:00	5	1	Stimuli/versionAstim.txt	Procedure/versionAproc.txt	Tetris		GINGER		GINGER	OFF	Cat_Recall_L1	315	Study	No	3	Cat_Recall_L1	ON		3000								
A1IU5OP7BBZHZ7	Collector	1	337	2016-03-04T18:30:41-08:00	4	1	Stimuli/versionAstim.txt	Procedure/versionAproc.txt	Tetris		ALMOND		ALMOND	OFF	Cat_Recall_L1	310	Study	No	3	Cat_Recall_L1	ON		3000								
A1IU5OP7BBZHZ7	Collector	1	338	2016-03-04T18:30:46-08:00	5	1	Stimuli/versionAstim.txt	Procedure/versionAproc.txt	Tetris		OREGANO		OREGANO	OFF	Cat_Recall_L1	305	Study	No	3	Cat_Recall_L1	ON		3000								
A1IU5OP7BBZHZ7	Collector	1	339	2016-03-04T18:30:51-08:00	5	1	Stimuli/versionAstim.txt	Procedure/versionAproc.txt	Tetris		CHILI POWDER		CHILI POWDER	OFF	Cat_Recall_L1	317	Study	No	3	Cat_Recall_L1	ON		3000								
A1IU5OP7BBZHZ7	Collector	1	340	2016-03-04T18:30:56-08:00	5	1	Stimuli/versionAstim.txt	Procedure/versionAproc.txt	Tetris		CLOVES		CLOVES	OFF	Cat_Recall_L1	304	Study	No	3	Cat_Recall_L1	ON		3000								
A1IU5OP7BBZHZ7	Collector	1	341	2016-03-04T18:31:00-08:00	4	1	Stimuli/versionAstim.txt	Procedure/versionAproc.txt	Tetris		SUGAR		SUGAR	OFF	Cat_Recall_L1	302	Study	No	3	Cat_Recall_L1	ON		3000								
A1IU5OP7BBZHZ7	Collector	1	342	2016-03-04T18:31:05-08:00	5	1	Stimuli/versionAstim.txt	Procedure/versionAproc.txt	Tetris		ROSEMARY		ROSEMARY	OFF	Cat_Recall_L1	313	Study	No	3	Cat_Recall_L1	ON		3000								
A1IU5OP7BBZHZ7	Collector	1	343	2016-03-04T18:31:36-08:00	31	1	Stimuli/versionAstim.txt	Procedure/versionAproc.txt	Tetris		n/a	n/a	n/a	n/a	n/a	0	Instruct	N/A	User	Recall Instructions: Recall the words that you saw by typing them into the dialog box on the next screen. You will have 1 minute. Click the button below to begin.	OFF		29670								
A1IU5OP7BBZHZ7	Collector	1	344	2016-03-04T18:32:39-08:00	63	1	Stimuli/versionAstim.txt	Procedure/versionAproc.txt	Tetris		n/a	n/a	n/a	n/a	n/a	0	freerecall	N/A	60	Recall now in the box. Spelling will not be counted against you. The computer will advance when your minute is up.	OFF	celery seed <br />  <br /> rose mary <br />  <br /> ginger <br />  <br /> suger <br />  <br /> colves <br />  <br /> cumin <br />  <br /> thyme <br />  <br /> vanilla <br />  <br /> turmeric <br />  <br /> nutmeg	60000	5950	54340						
A1IU5OP7BBZHZ7	Collector	1	345	2016-03-04T18:32:43-08:00	4	1	Stimuli/versionAstim.txt	Procedure/versionAproc.txt	Tetris		n/a	n/a	n/a	n/a	n/a	0	Instruct	N/A	User	Click the button below for the next list.	OFF		1750								
A1IU5OP7BBZHZ7	Collector	1	346	2016-03-04T18:32:48-08:00	5	1	Stimuli/versionAstim.txt	Procedure/versionAproc.txt	Tetris		WINDMILL		WINDMILL	OFF	AdHoc_Recall_L2	339	Study	No	3	AdHoc_Recall_L2	ON		3000								
A1IU5OP7BBZHZ7	Collector	1	347	2016-03-04T18:32:52-08:00	4	1	Stimuli/versionAstim.txt	Procedure/versionAproc.txt	Tetris		DREIDEL		DREIDEL	OFF	AdHoc_Recall_L2	325	Study	No	3	AdHoc_Recall_L2	ON		3000								
A1IU5OP7BBZHZ7	Collector	1	348	2016-03-04T18:32:57-08:00	5	1	Stimuli/versionAstim.txt	Procedure/versionAproc.txt	Tetris		SATELLITE		SATELLITE	OFF	AdHoc_Recall_L2	323	Study	No	3	AdHoc_Recall_L2	ON		3000								
A1IU5OP7BBZHZ7	Collector	1	349	2016-03-04T18:33:01-08:00	4	1	Stimuli/versionAstim.txt	Procedure/versionAproc.txt	Tetris		SPIRAL		SPIRAL	OFF	AdHoc_Recall_L2	337	Study	No	3	AdHoc_Recall_L2	ON		3000								
A1IU5OP7BBZHZ7	Collector	1	350	2016-03-04T18:33:06-08:00	5	1	Stimuli/versionAstim.txt	Procedure/versionAproc.txt	Tetris		TORNADO		TORNADO	OFF	AdHoc_Recall_L2	335	Study	No	3	AdHoc_Recall_L2	ON		3000								
A1IU5OP7BBZHZ7	Collector	1	351	2016-03-04T18:33:11-08:00	5	1	Stimuli/versionAstim.txt	Procedure/versionAproc.txt	Tetris		PINWHEEL		PINWHEEL	OFF	AdHoc_Recall_L2	338	Study	No	3	AdHoc_Recall_L2	ON		3000								
A1IU5OP7BBZHZ7	Collector	1	352	2016-03-04T18:33:16-08:00	5	1	Stimuli/versionAstim.txt	Procedure/versionAproc.txt	Tetris		ORB		ORB	OFF	AdHoc_Recall_L2	328	Study	No	3	AdHoc_Recall_L2	ON		3000								
A1IU5OP7BBZHZ7	Collector	1	353	2016-03-04T18:33:20-08:00	4	1	Stimuli/versionAstim.txt	Procedure/versionAproc.txt	Tetris		ROTISSERIE		ROTISSERIE	OFF	AdHoc_Recall_L2	340	Study	No	3	AdHoc_Recall_L2	ON		3000								
A1IU5OP7BBZHZ7	Collector	1	354	2016-03-04T18:33:25-08:00	5	1	Stimuli/versionAstim.txt	Procedure/versionAproc.txt	Tetris		GEAR		GEAR	OFF	AdHoc_Recall_L2	329	Study	No	3	AdHoc_Recall_L2	ON		3000								
A1IU5OP7BBZHZ7	Collector	1	355	2016-03-04T18:33:30-08:00	5	1	Stimuli/versionAstim.txt	Procedure/versionAproc.txt	Tetris		GYROSCOPE		GYROSCOPE	OFF	AdHoc_Recall_L2	331	Study	No	3	AdHoc_Recall_L2	ON		3000								
A1IU5OP7BBZHZ7	Collector	1	356	2016-03-04T18:33:34-08:00	4	1	Stimuli/versionAstim.txt	Procedure/versionAproc.txt	Tetris		RECORD		RECORD	OFF	AdHoc_Recall_L2	332	Study	No	3	AdHoc_Recall_L2	ON		3000								
A1IU5OP7BBZHZ7	Collector	1	357	2016-03-04T18:33:39-08:00	5	1	Stimuli/versionAstim.txt	Procedure/versionAproc.txt	Tetris		SPOOL		SPOOL	OFF	AdHoc_Recall_L2	334	Study	No	3	AdHoc_Recall_L2	ON		3000								
A1IU5OP7BBZHZ7	Collector	1	358	2016-03-04T18:33:43-08:00	4	1	Stimuli/versionAstim.txt	Procedure/versionAproc.txt	Tetris		YO-YO		YO-YO	OFF	AdHoc_Recall_L2	341	Study	No	3	AdHoc_Recall_L2	ON		3000								
A1IU5OP7BBZHZ7	Collector	1	359	2016-03-04T18:33:48-08:00	5	1	Stimuli/versionAstim.txt	Procedure/versionAproc.txt	Tetris		BOTTLE		BOTTLE	OFF	AdHoc_Recall_L2	324	Study	No	3	AdHoc_Recall_L2	ON		3000								
A1IU5OP7BBZHZ7	Collector	1	360	2016-03-04T18:33:53-08:00	5	1	Stimuli/versionAstim.txt	Procedure/versionAproc.txt	Tetris		BICYCLE		BICYCLE	OFF	AdHoc_Recall_L2	333	Study	No	3	AdHoc_Recall_L2	ON		3000								
A1IU5OP7BBZHZ7	Collector	1	361	2016-03-04T18:33:58-08:00	5	1	Stimuli/versionAstim.txt	Procedure/versionAproc.txt	Tetris		PROPELLER		PROPELLER	OFF	AdHoc_Recall_L2	322	Study	No	3	AdHoc_Recall_L2	ON		3000								
A1IU5OP7BBZHZ7	Collector	1	362	2016-03-04T18:34:02-08:00	4	1	Stimuli/versionAstim.txt	Procedure/versionAproc.txt	Tetris		SPHERE		SPHERE	OFF	AdHoc_Recall_L2	327	Study	No	3	AdHoc_Recall_L2	ON		3000								
A1IU5OP7BBZHZ7	Collector	1	363	2016-03-04T18:34:07-08:00	5	1	Stimuli/versionAstim.txt	Procedure/versionAproc.txt	Tetris		ROULETTE		ROULETTE	OFF	AdHoc_Recall_L2	330	Study	No	3	AdHoc_Recall_L2	ON		3000								
A1IU5OP7BBZHZ7	Collector	1	364	2016-03-04T18:34:12-08:00	5	1	Stimuli/versionAstim.txt	Procedure/versionAproc.txt	Tetris		TOP		TOP	OFF	AdHoc_Recall_L2	326	Study	No	3	AdHoc_Recall_L2	ON		3000								
A1IU5OP7BBZHZ7	Collector	1	365	2016-03-04T18:34:16-08:00	4	1	Stimuli/versionAstim.txt	Procedure/versionAproc.txt	Tetris		HURRICANE		HURRICANE	OFF	AdHoc_Recall_L2	336	Study	No	3	AdHoc_Recall_L2	ON		3000								
A1IU5OP7BBZHZ7	Collector	1	366	2016-03-04T18:34:23-08:00	7	1	Stimuli/versionAstim.txt	Procedure/versionAproc.txt	Tetris		n/a	n/a	n/a	n/a	n/a	0	Instruct	N/A	User	Recall Instructions: Recall the words that you saw by typing them into the dialog box on the next screen. You will have 1 minute. Click the button below to begin.	OFF		5310								
A1IU5OP7BBZHZ7	Collector	1	367	2016-03-04T18:35:25-08:00	62	1	Stimuli/versionAstim.txt	Procedure/versionAproc.txt	Tetris		n/a	n/a	n/a	n/a	n/a	0	freerecall	N/A	60	Recall now in the box. Spelling will not be counted against you. The computer will advance when your minute is up.	OFF	yo-yo <br />  <br /> top <br />  <br /> sphere <br />  <br /> orb <br />  <br /> spiral <br />  <br /> satellite <br />  <br /> bicycle <br />  <br /> gear <br />  <br /> hurricane <br />  <br /> 	60000	2950	56150						
A1IU5OP7BBZHZ7	Collector	1	368	2016-03-04T18:35:53-08:00	28	1	Stimuli/versionAstim.txt	Procedure/versionAproc.txt	Tetris		n/a	n/a	n/a	n/a	n/a	0	Instruct	N/A	User	Click the button below for the next list.	OFF		26130								
A1IU5OP7BBZHZ7	Collector	1	369	2016-03-04T18:35:58-08:00	5	1	Stimuli/versionAstim.txt	Procedure/versionAproc.txt	Tetris		MANUAL		MANUAL	OFF	Unrel_Recall_L3	357	Study	No	3	Unrel_Recall_L3	ON		3000								
A1IU5OP7BBZHZ7	Collector	1	370	2016-03-04T18:36:03-08:00	5	1	Stimuli/versionAstim.txt	Procedure/versionAproc.txt	Tetris		DESERT		DESERT	OFF	Unrel_Recall_L3	347	Study	No	3	Unrel_Recall_L3	ON		3000								
A1IU5OP7BBZHZ7	Collector	1	371	2016-03-04T18:36:07-08:00	4	1	Stimuli/versionAstim.txt	Procedure/versionAproc.txt	Tetris		HELMET		HELMET	OFF	Unrel_Recall_L3	346	Study	No	3	Unrel_Recall_L3	ON		3000								
A1IU5OP7BBZHZ7	Collector	1	372	2016-03-04T18:36:12-08:00	5	1	Stimuli/versionAstim.txt	Procedure/versionAproc.txt	Tetris		CANDY		CANDY	OFF	Unrel_Recall_L3	348	Study	No	3	Unrel_Recall_L3	ON		3000								
A1IU5OP7BBZHZ7	Collector	1	373	2016-03-04T18:36:17-08:00	5	1	Stimuli/versionAstim.txt	Procedure/versionAproc.txt	Tetris		INDEX		INDEX	OFF	Unrel_Recall_L3	360	Study	No	3	Unrel_Recall_L3	ON		3000								
A1IU5OP7BBZHZ7	Collector	1	374	2016-03-04T18:36:21-08:00	4	1	Stimuli/versionAstim.txt	Procedure/versionAproc.txt	Tetris		ORPHAN		ORPHAN	OFF	Unrel_Recall_L3	355	Study	No	3	Unrel_Recall_L3	ON		3000								
A1IU5OP7BBZHZ7	Collector	1	375	2016-03-04T18:36:26-08:00	5	1	Stimuli/versionAstim.txt	Procedure/versionAproc.txt	Tetris		WAX		WAX	OFF	Unrel_Recall_L3	342	Study	No	3	Unrel_Recall_L3	ON		3000								
A1IU5OP7BBZHZ7	Collector	1	376	2016-03-04T18:36:31-08:00	5	1	Stimuli/versionAstim.txt	Procedure/versionAproc.txt	Tetris		LANTERN		LANTERN	OFF	Unrel_Recall_L3	345	Study	No	3	Unrel_Recall_L3	ON		3000								
A1IU5OP7BBZHZ7	Collector	1	377	2016-03-04T18:36:35-08:00	4	1	Stimuli/versionAstim.txt	Procedure/versionAproc.txt	Tetris		HERMIT		HERMIT	OFF	Unrel_Recall_L3	351	Study	No	3	Unrel_Recall_L3	ON		3000								
A1IU5OP7BBZHZ7	Collector	1	378	2016-03-04T18:36:40-08:00	5	1	Stimuli/versionAstim.txt	Procedure/versionAproc.txt	Tetris		HARVEST		HARVEST	OFF	Unrel_Recall_L3	359	Study	No	3	Unrel_Recall_L3	ON		3000								
A1IU5OP7BBZHZ7	Collector	1	379	2016-03-04T18:36:45-08:00	5	1	Stimuli/versionAstim.txt	Procedure/versionAproc.txt	Tetris		KEG		KEG	OFF	Unrel_Recall_L3	358	Study	No	3	Unrel_Recall_L3	ON		3000								
A1IU5OP7BBZHZ7	Collector	1	380	2016-03-04T18:36:50-08:00	5	1	Stimuli/versionAstim.txt	Procedure/versionAproc.txt	Tetris		DEBT		DEBT	OFF	Unrel_Recall_L3	343	Study	No	3	Unrel_Recall_L3	ON		3000								
A1IU5OP7BBZHZ7	Collector	1	381	2016-03-04T18:36:54-08:00	4	1	Stimuli/versionAstim.txt	Procedure/versionAproc.txt	Tetris		EPISODE		EPISODE	OFF	Unrel_Recall_L3	349	Study	No	3	Unrel_Recall_L3	ON		3000								
A1IU5OP7BBZHZ7	Collector	1	382	2016-03-04T18:36:59-08:00	5	1	Stimuli/versionAstim.txt	Procedure/versionAproc.txt	Tetris		WHALE		WHALE	OFF	Unrel_Recall_L3	353	Study	No	3	Unrel_Recall_L3	ON		3000								
A1IU5OP7BBZHZ7	Collector	1	383	2016-03-04T18:37:03-08:00	4	1	Stimuli/versionAstim.txt	Procedure/versionAproc.txt	Tetris		BISHOP		BISHOP	OFF	Unrel_Recall_L3	350	Study	No	3	Unrel_Recall_L3	ON		3000								
A1IU5OP7BBZHZ7	Collector	1	384	2016-03-04T18:37:08-08:00	5	1	Stimuli/versionAstim.txt	Procedure/versionAproc.txt	Tetris		EMPRESS		EMPRESS	OFF	Unrel_Recall_L3	344	Study	No	3	Unrel_Recall_L3	ON		3000								
A1IU5OP7BBZHZ7	Collector	1	385	2016-03-04T18:37:13-08:00	5	1	Stimuli/versionAstim.txt	Procedure/versionAproc.txt	Tetris		JAM		JAM	OFF	Unrel_Recall_L3	354	Study	No	3	Unrel_Recall_L3	ON		3000								
A1IU5OP7BBZHZ7	Collector	1	386	2016-03-04T18:37:18-08:00	5	1	Stimuli/versionAstim.txt	Procedure/versionAproc.txt	Tetris		ACRE		ACRE	OFF	Unrel_Recall_L3	352	Study	No	3	Unrel_Recall_L3	ON		3000								
A1IU5OP7BBZHZ7	Collector	1	387	2016-03-04T18:37:22-08:00	4	1	Stimuli/versionAstim.txt	Procedure/versionAproc.txt	Tetris		METEOR		METEOR	OFF	Unrel_Recall_L3	356	Study	No	3	Unrel_Recall_L3	ON		3000								
A1IU5OP7BBZHZ7	Collector	1	388	2016-03-04T18:37:27-08:00	5	1	Stimuli/versionAstim.txt	Procedure/versionAproc.txt	Tetris		CANTEEN		CANTEEN	OFF	Unrel_Recall_L3	361	Study	No	3	Unrel_Recall_L3	ON		3000								
A1IU5OP7BBZHZ7	Collector	1	389	2016-03-04T18:40:47-08:00	200	1	Stimuli/versionAstim.txt	Procedure/versionAproc.txt	Tetris		n/a	n/a	n/a	n/a	n/a	0	Instruct	N/A	User	Recall Instructions: Recall the words that you saw by typing them into the dialog box on the next screen. You will have 1 minute. Click the button below to begin.	OFF		197300								
A1IU5OP7BBZHZ7	Collector	1	390	2016-03-04T18:41:48-08:00	61	1	Stimuli/versionAstim.txt	Procedure/versionAproc.txt	Tetris		n/a	n/a	n/a	n/a	n/a	0	freerecall	N/A	60	Recall now in the box. Spelling will not be counted against you. The computer will advance when your minute is up.	OFF	kag <br />  <br /> debt <br />  <br /> acre <br />  <br /> jam <br />  <br /> whale <br />  <br /> episode <br />  <br /> candy <br />  <br /> wak <br />  <br /> 	60000	1810	47790						
A1IU5OP7BBZHZ7	Collector	1	391	2016-03-04T18:42:00-08:00	12	1	Stimuli/versionAstim.txt	Procedure/versionAproc.txt	Tetris		n/a	n/a	n/a	n/a	n/a	0	Instruct	N/A	User	Click the button below for the next list.	OFF		10120								
A1IU5OP7BBZHZ7	Collector	1	392	2016-03-04T18:42:05-08:00	5	1	Stimuli/versionAstim.txt	Procedure/versionAproc.txt	Tetris		SOLAR		SOLAR	OFF	Unrel_Recall_L4	366	Study	No	3	Unrel_Recall_L4	ON		3000								
A1IU5OP7BBZHZ7	Collector	1	393	2016-03-04T18:42:10-08:00	5	1	Stimuli/versionAstim.txt	Procedure/versionAproc.txt	Tetris		CANOE		CANOE	OFF	Unrel_Recall_L4	362	Study	No	3	Unrel_Recall_L4	ON		3000								
A1IU5OP7BBZHZ7	Collector	1	394	2016-03-04T18:42:14-08:00	4	1	Stimuli/versionAstim.txt	Procedure/versionAproc.txt	Tetris		BLOSSOM		BLOSSOM	OFF	Unrel_Recall_L4	365	Study	No	3	Unrel_Recall_L4	ON		3000								
A1IU5OP7BBZHZ7	Collector	1	395	2016-03-04T18:42:19-08:00	5	1	Stimuli/versionAstim.txt	Procedure/versionAproc.txt	Tetris		DENTIST		DENTIST	OFF	Unrel_Recall_L4	381	Study	No	3	Unrel_Recall_L4	ON		3000								
A1IU5OP7BBZHZ7	Collector	1	396	2016-03-04T18:42:24-08:00	5	1	Stimuli/versionAstim.txt	Procedure/versionAproc.txt	Tetris		MATH		MATH	OFF	Unrel_Recall_L4	376	Study	No	3	Unrel_Recall_L4	ON		3000								
A1IU5OP7BBZHZ7	Collector	1	397	2016-03-04T18:42:29-08:00	5	1	Stimuli/versionAstim.txt	Procedure/versionAproc.txt	Tetris		ACORN		ACORN	OFF	Unrel_Recall_L4	379	Study	No	3	Unrel_Recall_L4	ON		3000								
A1IU5OP7BBZHZ7	Collector	1	398	2016-03-04T18:42:33-08:00	4	1	Stimuli/versionAstim.txt	Procedure/versionAproc.txt	Tetris		NUGGET		NUGGET	OFF	Unrel_Recall_L4	370	Study	No	3	Unrel_Recall_L4	ON		3000								
A1IU5OP7BBZHZ7	Collector	1	399	2016-03-04T18:42:38-08:00	5	1	Stimuli/versionAstim.txt	Procedure/versionAproc.txt	Tetris		CANON		CANON	OFF	Unrel_Recall_L4	368	Study	No	3	Unrel_Recall_L4	ON		3000								
A1IU5OP7BBZHZ7	Collector	1	400	2016-03-04T18:42:42-08:00	4	1	Stimuli/versionAstim.txt	Procedure/versionAproc.txt	Tetris		ANGEL		ANGEL	OFF	Unrel_Recall_L4	364	Study	No	3	Unrel_Recall_L4	ON		3000								
A1IU5OP7BBZHZ7	Collector	1	401	2016-03-04T18:42:48-08:00	6	1	Stimuli/versionAstim.txt	Procedure/versionAproc.txt	Tetris		VALVE		VALVE	OFF	Unrel_Recall_L4	367	Study	No	3	Unrel_Recall_L4	ON		3000								
A1IU5OP7BBZHZ7	Collector	1	402	2016-03-04T18:42:52-08:00	4	1	Stimuli/versionAstim.txt	Procedure/versionAproc.txt	Tetris		KEROSENE		KEROSENE	OFF	Unrel_Recall_L4	371	Study	No	3	Unrel_Recall_L4	ON		3000								
A1IU5OP7BBZHZ7	Collector	1	403	2016-03-04T18:42:57-08:00	5	1	Stimuli/versionAstim.txt	Procedure/versionAproc.txt	Tetris		PINT		PINT	OFF	Unrel_Recall_L4	373	Study	No	3	Unrel_Recall_L4	ON		3000								
A1IU5OP7BBZHZ7	Collector	1	404	2016-03-04T18:43:02-08:00	5	1	Stimuli/versionAstim.txt	Procedure/versionAproc.txt	Tetris		FARM		FARM	OFF	Unrel_Recall_L4	374	Study	No	3	Unrel_Recall_L4	ON		3000								
A1IU5OP7BBZHZ7	Collector	1	405	2016-03-04T18:43:06-08:00	4	1	Stimuli/versionAstim.txt	Procedure/versionAproc.txt	Tetris		FUNK		FUNK	OFF	Unrel_Recall_L4	372	Study	No	3	Unrel_Recall_L4	ON		3000								
A1IU5OP7BBZHZ7	Collector	1	406	2016-03-04T18:43:11-08:00	5	1	Stimuli/versionAstim.txt	Procedure/versionAproc.txt	Tetris		INFANT		INFANT	OFF	Unrel_Recall_L4	369	Study	No	3	Unrel_Recall_L4	ON		3000								
A1IU5OP7BBZHZ7	Collector	1	407	2016-03-04T18:43:16-08:00	5	1	Stimuli/versionAstim.txt	Procedure/versionAproc.txt	Tetris		CREST		CREST	OFF	Unrel_Recall_L4	377	Study	No	3	Unrel_Recall_L4	ON		3000								
A1IU5OP7BBZHZ7	Collector	1	408	2016-03-04T18:43:20-08:00	4	1	Stimuli/versionAstim.txt	Procedure/versionAproc.txt	Tetris		VAPOR		VAPOR	OFF	Unrel_Recall_L4	375	Study	No	3	Unrel_Recall_L4	ON		3000								
A1IU5OP7BBZHZ7	Collector	1	409	2016-03-04T18:43:25-08:00	5	1	Stimuli/versionAstim.txt	Procedure/versionAproc.txt	Tetris		CANE		CANE	OFF	Unrel_Recall_L4	378	Study	No	3	Unrel_Recall_L4	ON		3000								
A1IU5OP7BBZHZ7	Collector	1	410	2016-03-04T18:43:30-08:00	5	1	Stimuli/versionAstim.txt	Procedure/versionAproc.txt	Tetris		QUICHE		QUICHE	OFF	Unrel_Recall_L4	363	Study	No	3	Unrel_Recall_L4	ON		3000								
A1IU5OP7BBZHZ7	Collector	1	411	2016-03-04T18:43:34-08:00	4	1	Stimuli/versionAstim.txt	Procedure/versionAproc.txt	Tetris		OUTLAW		OUTLAW	OFF	Unrel_Recall_L4	380	Study	No	3	Unrel_Recall_L4	ON		3000								
A1IU5OP7BBZHZ7	Collector	1	412	2016-03-04T18:43:46-08:00	12	1	Stimuli/versionAstim.txt	Procedure/versionAproc.txt	Tetris		n/a	n/a	n/a	n/a	n/a	0	Instruct	N/A	User	Recall Instructions: Recall the words that you saw by typing them into the dialog box on the next screen. You will have 1 minute. Click the button below to begin.	OFF		10080								
A1IU5OP7BBZHZ7	Collector	1	413	2016-03-04T18:44:48-08:00	62	1	Stimuli/versionAstim.txt	Procedure/versionAproc.txt	Tetris		n/a	n/a	n/a	n/a	n/a	0	freerecall	N/A	60	Recall now in the box. Spelling will not be counted against you. The computer will advance when your minute is up.	OFF	outlaw <br />  <br /> solar <br />  <br /> math <br />  <br /> farm <br />  <br /> vapor <br />  <br /> cane <br />  <br /> crest <br />  <br /> pint <br />  <br /> dentist <br />  <br /> angel <br />  <br /> kerosene <br />  <br /> blossom	60000	3630	52890						
A1IU5OP7BBZHZ7	Collector	1	414	2016-03-04T18:45:48-08:00	60	1	Stimuli/versionAstim.txt	Procedure/versionAproc.txt	Tetris		n/a	n/a	n/a	n/a	n/a	0	Instruct	N/A	User	Click the button below for the next list.	OFF		56520								
A1IU5OP7BBZHZ7	Collector	1	415	2016-03-04T18:45:52-08:00	4	1	Stimuli/versionAstim.txt	Procedure/versionAproc.txt	Tetris		CHIFFON		CHIFFON	OFF	Cat_Recall_L5	400	Study	No	3	Cat_Recall_L5	ON		3000								
A1IU5OP7BBZHZ7	Collector	1	416	2016-03-04T18:45:57-08:00	5	1	Stimuli/versionAstim.txt	Procedure/versionAproc.txt	Tetris		DENIUM		DENIUM	OFF	Cat_Recall_L5	387	Study	No	3	Cat_Recall_L5	ON		3000								
A1IU5OP7BBZHZ7	Collector	1	417	2016-03-04T18:46:02-08:00	5	1	Stimuli/versionAstim.txt	Procedure/versionAproc.txt	Tetris		CHEESE CLOTH		CHEESE CLOTH	OFF	Cat_Recall_L5	390	Study	No	3	Cat_Recall_L5	ON		3000								
A1IU5OP7BBZHZ7	Collector	1	418	2016-03-04T18:46:07-08:00	5	1	Stimuli/versionAstim.txt	Procedure/versionAproc.txt	Tetris		BURLAP		BURLAP	OFF	Cat_Recall_L5	386	Study	No	3	Cat_Recall_L5	ON		3000								
A1IU5OP7BBZHZ7	Collector	1	419	2016-03-04T18:46:11-08:00	4	1	Stimuli/versionAstim.txt	Procedure/versionAproc.txt	Tetris		WORSTED		WORSTED	OFF	Cat_Recall_L5	385	Study	No	3	Cat_Recall_L5	ON		3000								
A1IU5OP7BBZHZ7	Collector	1	420	2016-03-04T18:46:16-08:00	5	1	Stimuli/versionAstim.txt	Procedure/versionAproc.txt	Tetris		ANGORA		ANGORA	OFF	Cat_Recall_L5	398	Study	No	3	Cat_Recall_L5	ON		3000								
A1IU5OP7BBZHZ7	Collector	1	421	2016-03-04T18:46:21-08:00	5	1	Stimuli/versionAstim.txt	Procedure/versionAproc.txt	Tetris		TWILL		TWILL	OFF	Cat_Recall_L5	382	Study	No	3	Cat_Recall_L5	ON		3000								
A1IU5OP7BBZHZ7	Collector	1	422	2016-03-04T18:46:26-08:00	5	1	Stimuli/versionAstim.txt	Procedure/versionAproc.txt	Tetris		CORDUROY		CORDUROY	OFF	Cat_Recall_L5	388	Study	No	3	Cat_Recall_L5	ON		3000								
A1IU5OP7BBZHZ7	Collector	1	423	2016-03-04T18:46:31-08:00	5	1	Stimuli/versionAstim.txt	Procedure/versionAproc.txt	Tetris		ALPACA		ALPACA	OFF	Cat_Recall_L5	399	Study	No	3	Cat_Recall_L5	ON		3000								
A1IU5OP7BBZHZ7	Collector	1	424	2016-03-04T18:46:35-08:00	4	1	Stimuli/versionAstim.txt	Procedure/versionAproc.txt	Tetris		TERRY		TERRY	OFF	Cat_Recall_L5	391	Study	No	3	Cat_Recall_L5	ON		3000								
A1IU5OP7BBZHZ7	Collector	1	425	2016-03-04T18:46:40-08:00	5	1	Stimuli/versionAstim.txt	Procedure/versionAproc.txt	Tetris		JERSEY		JERSEY	OFF	Cat_Recall_L5	395	Study	No	3	Cat_Recall_L5	ON		3000								
A1IU5OP7BBZHZ7	Collector	1	426	2016-03-04T18:46:45-08:00	5	1	Stimuli/versionAstim.txt	Procedure/versionAproc.txt	Tetris		CALICO		CALICO	OFF	Cat_Recall_L5	384	Study	No	3	Cat_Recall_L5	ON		3000								
A1IU5OP7BBZHZ7	Collector	1	427	2016-03-04T18:46:49-08:00	4	1	Stimuli/versionAstim.txt	Procedure/versionAproc.txt	Tetris		TWEED		TWEED	OFF	Cat_Recall_L5	392	Study	No	3	Cat_Recall_L5	ON		3000								
A1IU5OP7BBZHZ7	Collector	1	428	2016-03-04T18:46:54-08:00	5	1	Stimuli/versionAstim.txt	Procedure/versionAproc.txt	Tetris		SHEEPSKIN		SHEEPSKIN	OFF	Cat_Recall_L5	394	Study	No	3	Cat_Recall_L5	ON		3000								
A1IU5OP7BBZHZ7	Collector	1	429	2016-03-04T18:46:59-08:00	5	1	Stimuli/versionAstim.txt	Procedure/versionAproc.txt	Tetris		LACE		LACE	OFF	Cat_Recall_L5	397	Study	No	3	Cat_Recall_L5	ON		3000								
A1IU5OP7BBZHZ7	Collector	1	430	2016-03-04T18:47:04-08:00	5	1	Stimuli/versionAstim.txt	Procedure/versionAproc.txt	Tetris		FLANNEL		FLANNEL	OFF	Cat_Recall_L5	389	Study	No	3	Cat_Recall_L5	ON		3000								
A1IU5OP7BBZHZ7	Collector	1	431	2016-03-04T18:47:08-08:00	4	1	Stimuli/versionAstim.txt	Procedure/versionAproc.txt	Tetris		FELT		FELT	OFF	Cat_Recall_L5	396	Study	No	3	Cat_Recall_L5	ON		3000								
A1IU5OP7BBZHZ7	Collector	1	432	2016-03-04T18:47:13-08:00	5	1	Stimuli/versionAstim.txt	Procedure/versionAproc.txt	Tetris		LYCRA		LYCRA	OFF	Cat_Recall_L5	401	Study	No	3	Cat_Recall_L5	ON		3000								
A1IU5OP7BBZHZ7	Collector	1	433	2016-03-04T18:47:18-08:00	5	1	Stimuli/versionAstim.txt	Procedure/versionAproc.txt	Tetris		POLYESTER		POLYESTER	OFF	Cat_Recall_L5	393	Study	No	3	Cat_Recall_L5	ON		3000								
A1IU5OP7BBZHZ7	Collector	1	434	2016-03-04T18:47:23-08:00	5	1	Stimuli/versionAstim.txt	Procedure/versionAproc.txt	Tetris		LINEN		LINEN	OFF	Cat_Recall_L5	383	Study	No	3	Cat_Recall_L5	ON		3000								
A1IU5OP7BBZHZ7	Collector	1	435	2016-03-04T18:47:45-08:00	22	1	Stimuli/versionAstim.txt	Procedure/versionAproc.txt	Tetris		n/a	n/a	n/a	n/a	n/a	0	Instruct	N/A	User	Recall Instructions: Recall the words that you saw by typing them into the dialog box on the next screen. You will have 1 minute. Click the button below to begin.	OFF		20390								
A1IU5OP7BBZHZ7	Collector	1	436	2016-03-04T18:48:47-08:00	62	1	Stimuli/versionAstim.txt	Procedure/versionAproc.txt	Tetris		n/a	n/a	n/a	n/a	n/a	0	freerecall	N/A	60	Recall now in the box. Spelling will not be counted against you. The computer will advance when your minute is up.	OFF	linen <br />  <br /> lace <br />  <br /> twill <br />  <br /> angora <br />  <br /> felt <br />  <br /> calico <br />  <br /> tweed <br />  <br /> lycra <br />  <br /> 	60000	3010	53230						
A1IU5OP7BBZHZ7	Collector	1	437	2016-03-04T18:48:54-08:00	7	1	Stimuli/versionAstim.txt	Procedure/versionAproc.txt	Tetris		n/a	n/a	n/a	n/a	n/a	0	Instruct	N/A	User	Click the button below for the next list.	OFF		5370								
A1IU5OP7BBZHZ7	Collector	1	438	2016-03-04T18:48:59-08:00	5	1	Stimuli/versionAstim.txt	Procedure/versionAproc.txt	Tetris		DOOR		DOOR	OFF	AdHoc_Recall_L6	405	Study	No	3	AdHoc_Recall_L6	ON		3000								
A1IU5OP7BBZHZ7	Collector	1	439	2016-03-04T18:49:04-08:00	5	1	Stimuli/versionAstim.txt	Procedure/versionAproc.txt	Tetris		GAZEBO		GAZEBO	OFF	AdHoc_Recall_L6	406	Study	No	3	AdHoc_Recall_L6	ON		3000								
A1IU5OP7BBZHZ7	Collector	1	440	2016-03-04T18:49:08-08:00	4	1	Stimuli/versionAstim.txt	Procedure/versionAproc.txt	Tetris		RULER		RULER	OFF	AdHoc_Recall_L6	418	Study	No	3	AdHoc_Recall_L6	ON		3000								
A1IU5OP7BBZHZ7	Collector	1	441	2016-03-04T18:49:13-08:00	5	1	Stimuli/versionAstim.txt	Procedure/versionAproc.txt	Tetris		ROCKING HORSE		ROCKING HORSE	OFF	AdHoc_Recall_L6	408	Study	No	3	AdHoc_Recall_L6	ON		3000								
A1IU5OP7BBZHZ7	Collector	1	442	2016-03-04T18:49:18-08:00	5	1	Stimuli/versionAstim.txt	Procedure/versionAproc.txt	Tetris		HOUSE		HOUSE	OFF	AdHoc_Recall_L6	402	Study	No	3	AdHoc_Recall_L6	ON		3000								
A1IU5OP7BBZHZ7	Collector	1	443	2016-03-04T18:49:22-08:00	4	1	Stimuli/versionAstim.txt	Procedure/versionAproc.txt	Tetris		BARN		BARN	OFF	AdHoc_Recall_L6	421	Study	No	3	AdHoc_Recall_L6	ON		3000								
A1IU5OP7BBZHZ7	Collector	1	444	2016-03-04T18:49:27-08:00	5	1	Stimuli/versionAstim.txt	Procedure/versionAproc.txt	Tetris		SLED		SLED	OFF	AdHoc_Recall_L6	419	Study	No	3	AdHoc_Recall_L6	ON		3000								
A1IU5OP7BBZHZ7	Collector	1	445	2016-03-04T18:49:32-08:00	5	1	Stimuli/versionAstim.txt	Procedure/versionAproc.txt	Tetris		BASEBALL BAT		BASEBALL BAT	OFF	AdHoc_Recall_L6	413	Study	No	3	AdHoc_Recall_L6	ON		3000								
A1IU5OP7BBZHZ7	Collector	1	446	2016-03-04T18:49:37-08:00	5	1	Stimuli/versionAstim.txt	Procedure/versionAproc.txt	Tetris		TABLE		TABLE	OFF	AdHoc_Recall_L6	403	Study	No	3	AdHoc_Recall_L6	ON		3000								
A1IU5OP7BBZHZ7	Collector	1	447	2016-03-04T18:49:41-08:00	4	1	Stimuli/versionAstim.txt	Procedure/versionAproc.txt	Tetris		BENCH		BENCH	OFF	AdHoc_Recall_L6	415	Study	No	3	AdHoc_Recall_L6	ON		3000								
A1IU5OP7BBZHZ7	Collector	1	448	2016-03-04T18:49:46-08:00	5	1	Stimuli/versionAstim.txt	Procedure/versionAproc.txt	Tetris		CABINET		CABINET	OFF	AdHoc_Recall_L6	416	Study	No	3	AdHoc_Recall_L6	ON		3000								
A1IU5OP7BBZHZ7	Collector	1	449	2016-03-04T18:49:50-08:00	4	1	Stimuli/versionAstim.txt	Procedure/versionAproc.txt	Tetris		STAIRS		STAIRS	OFF	AdHoc_Recall_L6	417	Study	No	3	AdHoc_Recall_L6	ON		3000								
A1IU5OP7BBZHZ7	Collector	1	450	2016-03-04T18:49:55-08:00	5	1	Stimuli/versionAstim.txt	Procedure/versionAproc.txt	Tetris		CLOGS		CLOGS	OFF	AdHoc_Recall_L6	411	Study	No	3	AdHoc_Recall_L6	ON		3000								
A1IU5OP7BBZHZ7	Collector	1	451	2016-03-04T18:50:01-08:00	6	1	Stimuli/versionAstim.txt	Procedure/versionAproc.txt	Tetris		SHELF		SHELF	OFF	AdHoc_Recall_L6	412	Study	No	3	AdHoc_Recall_L6	ON		3000								
A1IU5OP7BBZHZ7	Collector	1	452	2016-03-04T18:50:06-08:00	5	1	Stimuli/versionAstim.txt	Procedure/versionAproc.txt	Tetris		CHAIR		CHAIR	OFF	AdHoc_Recall_L6	404	Study	No	3	AdHoc_Recall_L6	ON		3000								
A1IU5OP7BBZHZ7	Collector	1	453	2016-03-04T18:50:11-08:00	5	1	Stimuli/versionAstim.txt	Procedure/versionAproc.txt	Tetris		DOCK		DOCK	OFF	AdHoc_Recall_L6	414	Study	No	3	AdHoc_Recall_L6	ON		3000								
A1IU5OP7BBZHZ7	Collector	1	454	2016-03-04T18:50:15-08:00	4	1	Stimuli/versionAstim.txt	Procedure/versionAproc.txt	Tetris		DESK		DESK	OFF	AdHoc_Recall_L6	409	Study	No	3	AdHoc_Recall_L6	ON		3000								
A1IU5OP7BBZHZ7	Collector	1	455	2016-03-04T18:50:20-08:00	5	1	Stimuli/versionAstim.txt	Procedure/versionAproc.txt	Tetris		PENCIL		PENCIL	OFF	AdHoc_Recall_L6	407	Study	No	3	AdHoc_Recall_L6	ON		3000								
A1IU5OP7BBZHZ7	Collector	1	456	2016-03-04T18:50:25-08:00	5	1	Stimuli/versionAstim.txt	Procedure/versionAproc.txt	Tetris		SHIP		SHIP	OFF	AdHoc_Recall_L6	410	Study	No	3	AdHoc_Recall_L6	ON		3000								
A1IU5OP7BBZHZ7	Collector	1	457	2016-03-04T18:50:29-08:00	4	1	Stimuli/versionAstim.txt	Procedure/versionAproc.txt	Tetris		BOOMERANG		BOOMERANG	OFF	AdHoc_Recall_L6	420	Study	No	3	AdHoc_Recall_L6	ON		3000								
A1IU5OP7BBZHZ7	Collector	1	458	2016-03-04T18:50:35-08:00	6	1	Stimuli/versionAstim.txt	Procedure/versionAproc.txt	Tetris		n/a	n/a	n/a	n/a	n/a	0	Instruct	N/A	User	Recall Instructions: Recall the words that you saw by typing them into the dialog box on the next screen. You will have 1 minute. Click the button below to begin.	OFF		3590								
A1IU5OP7BBZHZ7	Collector	1	459	2016-03-04T18:51:36-08:00	61	1	Stimuli/versionAstim.txt	Procedure/versionAproc.txt	Tetris		n/a	n/a	n/a	n/a	n/a	0	freerecall	N/A	60	Recall now in the box. Spelling will not be counted against you. The computer will advance when your minute is up.	OFF	chair <br />  <br /> bench <br />  <br /> stairs <br />  <br /> table <br />  <br /> desk <br />  <br /> pencil <br />  <br /> barn <br />  <br /> house <br />  <br /> ship <br />  <br /> dock <br />  <br /> cabinet <br />  <br /> ruler <br />  <br /> sled <br />  <br /> 	60000	3240	56360						
A1IU5OP7BBZHZ7	Collector	1	460	2016-03-04T18:51:49-08:00	13	1	Stimuli/versionAstim.txt	Procedure/versionAproc.txt	Tetris		n/a	n/a	n/a	n/a	n/a	0	Instruct	N/A	User	Now you will complete a recognition memory test based on the last 6 lists that you have studied. A word will be displayed on the computer screen and you are to decide whether the word was studied in the last 6 lists. If the word was studied, click the "yes" button. If the word was not studied, click the "no" button. Respond as quickly as possible without compromising accuracy.	OFF		11060								
A1IU5OP7BBZHZ7	Collector	1	461	2016-03-04T18:51:53-08:00	4	1	Stimuli/versionAstim.txt	Procedure/versionAproc.txt	Tetris		n/a	n/a	n/a	n/a	n/a	0	Instruct	N/A	User	Click the button below to begin the test.	OFF		1690								
A1IU5OP7BBZHZ7	Collector	1	462	2016-03-04T18:51:56-08:00	3	1	Stimuli/versionAstim.txt	Procedure/versionAproc.txt	Tetris		ONION SALT		ONION SALT	OFF	LI_Cat_Recall	424	seqrec	No	User	RGN Test	ON	Yes	1310								
A1IU5OP7BBZHZ7	Collector	1	463	2016-03-04T18:51:58-08:00	2	1	Stimuli/versionAstim.txt	Procedure/versionAproc.txt	Tetris		WIZARD		WIZARD	OFF	NPLI_Unrel_Recall	564	seqrec	No	User	RGN Test	ON	No	1160								
A1IU5OP7BBZHZ7	Collector	1	464	2016-03-04T18:52:01-08:00	3	1	Stimuli/versionAstim.txt	Procedure/versionAproc.txt	Tetris		DOWEL		DOWEL	OFF	NPLI_Unrel_Recall	567	seqrec	No	User	RGN Test	ON	No	1000								
A1IU5OP7BBZHZ7	Collector	1	465	2016-03-04T18:52:03-08:00	2	1	Stimuli/versionAstim.txt	Procedure/versionAproc.txt	Tetris		ISSUE		ISSUE	OFF	NPCI_Unrel_Recall	574	seqrec	No	User	RGN Test	ON	No	640								
A1IU5OP7BBZHZ7	Collector	1	466	2016-03-04T18:52:06-08:00	3	1	Stimuli/versionAstim.txt	Procedure/versionAproc.txt	Tetris		FLANNEL		FLANNEL	OFF	LI_Cat_Recall	465	seqrec	No	User	RGN Test	ON	Yes	1080								
A1IU5OP7BBZHZ7	Collector	1	467	2016-03-04T18:52:09-08:00	3	1	Stimuli/versionAstim.txt	Procedure/versionAproc.txt	Tetris		TOOTHBRUSH		TOOTHBRUSH	OFF	NPCI_AdHoc_Recall	579	seqrec	No	User	RGN Test	ON	No	1320								
A1IU5OP7BBZHZ7	Collector	1	468	2016-03-04T18:52:11-08:00	2	1	Stimuli/versionAstim.txt	Procedure/versionAproc.txt	Tetris		PLANET		PLANET	OFF	CI_AdHoc_Recall	488	seqrec	No	User	RGN Test	ON	No	920								
A1IU5OP7BBZHZ7	Collector	1	469	2016-03-04T18:52:14-08:00	3	1	Stimuli/versionAstim.txt	Procedure/versionAproc.txt	Tetris		TERRY		TERRY	OFF	LI_Cat_Recall	466	seqrec	No	User	RGN Test	ON	Yes	1020								
A1IU5OP7BBZHZ7	Collector	1	470	2016-03-04T18:52:17-08:00	3	1	Stimuli/versionAstim.txt	Procedure/versionAproc.txt	Tetris		TOILET		TOILET	OFF	NPCI_AdHoc_Recall	578	seqrec	No	User	RGN Test	ON	No	1050								
A1IU5OP7BBZHZ7	Collector	1	471	2016-03-04T18:52:19-08:00	2	1	Stimuli/versionAstim.txt	Procedure/versionAproc.txt	Tetris		STICK		STICK	OFF	CI_AdHoc_Recall	508	seqrec	No	User	RGN Test	ON	No	790								
A1IU5OP7BBZHZ7	Collector	1	472	2016-03-04T18:52:21-08:00	2	1	Stimuli/versionAstim.txt	Procedure/versionAproc.txt	Tetris		KNOCK		KNOCK	OFF	NPLI_Unrel_Recall	566	seqrec	No	User	RGN Test	ON	No	720								
