*Username	*ExperimentName	*Session	*Trial	*Date	*TimeDif	*Condition Number	*Stimuli File	*Order File	*Condition Description	*Condition Notes	Stimuli*Target	Stimuli*Cue	Stimuli*Answer	Stimuli*Shuffle	Stimuli*Stimuli Notes	Procedure*Item	Procedure*Trial Type	Procedure*Post Trial	Procedure*Timing	Procedure*Procedure Notes	Procedure*Shuffle	Response*Response1	Response*RT	Response*RTkey	Response*RTlast	Response*strictAcc	Response*lenientAcc	Response*Accuracy	Response*JOL	Response*postRT	Response*postRTkey
A36O6HV8LCXLJR	Collector	1	1	2016-05-27T11:49:21-07:00	-	2	Stimuli/versionDstim.txt	Procedure/versionDproc.txt	Tetris		n/a	n/a	n/a	n/a	n/a	0	Instruct	N/A	User	Click the button below for the first list.	Off		5640								
A36O6HV8LCXLJR	Collector	1	2	2016-05-27T11:49:26-07:00	5	2	Stimuli/versionDstim.txt	Procedure/versionDproc.txt	Tetris		CANYON		CANYON	OFF	Unrel_Recall_L1	13	Study	No	3	Unrel_Recall_L1	ON		3000								
A36O6HV8LCXLJR	Collector	1	3	2016-05-27T11:49:30-07:00	4	2	Stimuli/versionDstim.txt	Procedure/versionDproc.txt	Tetris		JAR		JAR	OFF	Unrel_Recall_L1	11	Study	No	3	Unrel_Recall_L1	ON		3000								
A36O6HV8LCXLJR	Collector	1	4	2016-05-27T11:49:34-07:00	4	2	Stimuli/versionDstim.txt	Procedure/versionDproc.txt	Tetris		DETOUR		DETOUR	OFF	Unrel_Recall_L1	3	Study	No	3	Unrel_Recall_L1	ON		3000								
A36O6HV8LCXLJR	Collector	1	5	2016-05-27T11:49:38-07:00	4	2	Stimuli/versionDstim.txt	Procedure/versionDproc.txt	Tetris		BLAZE		BLAZE	OFF	Unrel_Recall_L1	19	Study	No	3	Unrel_Recall_L1	ON		3000								
A36O6HV8LCXLJR	Collector	1	6	2016-05-27T11:49:42-07:00	4	2	Stimuli/versionDstim.txt	Procedure/versionDproc.txt	Tetris		FOSSIL		FOSSIL	OFF	Unrel_Recall_L1	14	Study	No	3	Unrel_Recall_L1	ON		3000								
A36O6HV8LCXLJR	Collector	1	7	2016-05-27T11:49:46-07:00	4	2	Stimuli/versionDstim.txt	Procedure/versionDproc.txt	Tetris		WINNER		WINNER	OFF	Unrel_Recall_L1	21	Study	No	3	Unrel_Recall_L1	ON		3000								
A36O6HV8LCXLJR	Collector	1	8	2016-05-27T11:49:51-07:00	5	2	Stimuli/versionDstim.txt	Procedure/versionDproc.txt	Tetris		MARSH		MARSH	OFF	Unrel_Recall_L1	4	Study	No	3	Unrel_Recall_L1	ON		3000								
A36O6HV8LCXLJR	Collector	1	9	2016-05-27T11:49:55-07:00	4	2	Stimuli/versionDstim.txt	Procedure/versionDproc.txt	Tetris		JOKE		JOKE	OFF	Unrel_Recall_L1	6	Study	No	3	Unrel_Recall_L1	ON		3000								
A36O6HV8LCXLJR	Collector	1	10	2016-05-27T11:50:00-07:00	5	2	Stimuli/versionDstim.txt	Procedure/versionDproc.txt	Tetris		WINCH		WINCH	OFF	Unrel_Recall_L1	9	Study	No	3	Unrel_Recall_L1	ON		3000								
A36O6HV8LCXLJR	Collector	1	11	2016-05-27T11:50:04-07:00	4	2	Stimuli/versionDstim.txt	Procedure/versionDproc.txt	Tetris		GIN		GIN	OFF	Unrel_Recall_L1	18	Study	No	3	Unrel_Recall_L1	ON		3000								
A36O6HV8LCXLJR	Collector	1	12	2016-05-27T11:50:08-07:00	4	2	Stimuli/versionDstim.txt	Procedure/versionDproc.txt	Tetris		WRAP		WRAP	OFF	Unrel_Recall_L1	2	Study	No	3	Unrel_Recall_L1	ON		3000								
A36O6HV8LCXLJR	Collector	1	13	2016-05-27T11:50:12-07:00	4	2	Stimuli/versionDstim.txt	Procedure/versionDproc.txt	Tetris		CEREAL		CEREAL	OFF	Unrel_Recall_L1	15	Study	No	3	Unrel_Recall_L1	ON		3000								
A36O6HV8LCXLJR	Collector	1	14	2016-05-27T11:50:16-07:00	4	2	Stimuli/versionDstim.txt	Procedure/versionDproc.txt	Tetris		WORKSHOP		WORKSHOP	OFF	Unrel_Recall_L1	20	Study	No	3	Unrel_Recall_L1	ON		3000								
A36O6HV8LCXLJR	Collector	1	15	2016-05-27T11:50:20-07:00	4	2	Stimuli/versionDstim.txt	Procedure/versionDproc.txt	Tetris		FLURRY		FLURRY	OFF	Unrel_Recall_L1	7	Study	No	3	Unrel_Recall_L1	ON		3000								
A36O6HV8LCXLJR	Collector	1	16	2016-05-27T11:50:24-07:00	4	2	Stimuli/versionDstim.txt	Procedure/versionDproc.txt	Tetris		DWARF		DWARF	OFF	Unrel_Recall_L1	17	Study	No	3	Unrel_Recall_L1	ON		3000								
A36O6HV8LCXLJR	Collector	1	17	2016-05-27T11:50:28-07:00	4	2	Stimuli/versionDstim.txt	Procedure/versionDproc.txt	Tetris		AVENUE		AVENUE	OFF	Unrel_Recall_L1	5	Study	No	3	Unrel_Recall_L1	ON		3000								
A36O6HV8LCXLJR	Collector	1	18	2016-05-27T11:50:32-07:00	4	2	Stimuli/versionDstim.txt	Procedure/versionDproc.txt	Tetris		GONG		GONG	OFF	Unrel_Recall_L1	10	Study	No	3	Unrel_Recall_L1	ON		3000								
A36O6HV8LCXLJR	Collector	1	19	2016-05-27T11:50:36-07:00	4	2	Stimuli/versionDstim.txt	Procedure/versionDproc.txt	Tetris		LANCE		LANCE	OFF	Unrel_Recall_L1	16	Study	No	3	Unrel_Recall_L1	ON		3000								
A36O6HV8LCXLJR	Collector	1	20	2016-05-27T11:50:41-07:00	5	2	Stimuli/versionDstim.txt	Procedure/versionDproc.txt	Tetris		CELLOPHANE		CELLOPHANE	OFF	Unrel_Recall_L1	8	Study	No	3	Unrel_Recall_L1	ON		3000								
A36O6HV8LCXLJR	Collector	1	21	2016-05-27T11:50:45-07:00	4	2	Stimuli/versionDstim.txt	Procedure/versionDproc.txt	Tetris		KISS		KISS	OFF	Unrel_Recall_L1	12	Study	No	3	Unrel_Recall_L1	ON		3000								
A36O6HV8LCXLJR	Collector	1	22	2016-05-27T11:50:49-07:00	4	2	Stimuli/versionDstim.txt	Procedure/versionDproc.txt	Tetris		n/a	n/a	n/a	n/a	n/a	0	Instruct	N/A	User	Recall Instructions: Recall the words that you saw from memory by typing them into the dialog box on the next screen. You will have 1 minute. Click the button below to begin.	OFF		3260								
A36O6HV8LCXLJR	Collector	1	23	2016-05-27T11:51:53-07:00	64	2	Stimuli/versionDstim.txt	Procedure/versionDproc.txt	Tetris		n/a	n/a	n/a	n/a	n/a	0	freerecall	N/A	60	Recall now in the box. Spelling will not be counted against you. The computer will advance when your minute is up.	OFF	canyon <br />  <br /> jar <br />  <br /> flurry <br />  <br /> winch <br />  <br /> marsh <br />  <br /> dwarf <br />  <br /> lance <br />  <br /> gin <br />  <br /> cereal <br />  <br /> fossil <br />  <br /> winner <br />  <br /> cellophane	60000	2130	59930						
A36O6HV8LCXLJR	Collector	1	24	2016-05-27T11:52:18-07:00	25	2	Stimuli/versionDstim.txt	Procedure/versionDproc.txt	Tetris		n/a	n/a	n/a	n/a	n/a	0	Instruct	N/A	User	Click the button below for the next list.	OFF		22930								
A36O6HV8LCXLJR	Collector	1	25	2016-05-27T11:52:22-07:00	4	2	Stimuli/versionDstim.txt	Procedure/versionDproc.txt	Tetris		BRUSH		BRUSH	OFF	AdHoc_Recall_L2	29	Study	No	3	AdHoc_Recall_L2	ON		3000								
A36O6HV8LCXLJR	Collector	1	26	2016-05-27T11:52:26-07:00	4	2	Stimuli/versionDstim.txt	Procedure/versionDproc.txt	Tetris		CURLING IRON		CURLING IRON	OFF	AdHoc_Recall_L2	32	Study	No	3	AdHoc_Recall_L2	ON		3000								
A36O6HV8LCXLJR	Collector	1	27	2016-05-27T11:52:30-07:00	4	2	Stimuli/versionDstim.txt	Procedure/versionDproc.txt	Tetris		FAUCET		FAUCET	OFF	AdHoc_Recall_L2	26	Study	No	3	AdHoc_Recall_L2	ON		3000								
A36O6HV8LCXLJR	Collector	1	28	2016-05-27T11:52:34-07:00	4	2	Stimuli/versionDstim.txt	Procedure/versionDproc.txt	Tetris		DEODORANT		DEODORANT	OFF	AdHoc_Recall_L2	31	Study	No	3	AdHoc_Recall_L2	ON		3000								
A36O6HV8LCXLJR	Collector	1	29	2016-05-27T11:52:38-07:00	4	2	Stimuli/versionDstim.txt	Procedure/versionDproc.txt	Tetris		HAIR DRYER		HAIR DRYER	OFF	AdHoc_Recall_L2	39	Study	No	3	AdHoc_Recall_L2	ON		3000								
A36O6HV8LCXLJR	Collector	1	30	2016-05-27T11:52:43-07:00	5	2	Stimuli/versionDstim.txt	Procedure/versionDproc.txt	Tetris		TILE		TILE	OFF	AdHoc_Recall_L2	25	Study	No	3	AdHoc_Recall_L2	ON		3000								
A36O6HV8LCXLJR	Collector	1	31	2016-05-27T11:52:46-07:00	3	2	Stimuli/versionDstim.txt	Procedure/versionDproc.txt	Tetris		SHAMPOO		SHAMPOO	OFF	AdHoc_Recall_L2	34	Study	No	3	AdHoc_Recall_L2	ON		3000								
A36O6HV8LCXLJR	Collector	1	32	2016-05-27T11:52:50-07:00	4	2	Stimuli/versionDstim.txt	Procedure/versionDproc.txt	Tetris		SOAP		SOAP	OFF	AdHoc_Recall_L2	22	Study	No	3	AdHoc_Recall_L2	ON		3000								
A36O6HV8LCXLJR	Collector	1	33	2016-05-27T11:52:55-07:00	5	2	Stimuli/versionDstim.txt	Procedure/versionDproc.txt	Tetris		MOUTHWASH		MOUTHWASH	OFF	AdHoc_Recall_L2	36	Study	No	3	AdHoc_Recall_L2	ON		3000								
A36O6HV8LCXLJR	Collector	1	34	2016-05-27T11:52:59-07:00	4	2	Stimuli/versionDstim.txt	Procedure/versionDproc.txt	Tetris		LOTION		LOTION	OFF	AdHoc_Recall_L2	30	Study	No	3	AdHoc_Recall_L2	ON		3000								
A36O6HV8LCXLJR	Collector	1	35	2016-05-27T11:53:03-07:00	4	2	Stimuli/versionDstim.txt	Procedure/versionDproc.txt	Tetris		MEDICINE		MEDICINE	OFF	AdHoc_Recall_L2	27	Study	No	3	AdHoc_Recall_L2	ON		3000								
A36O6HV8LCXLJR	Collector	1	36	2016-05-27T11:53:07-07:00	4	2	Stimuli/versionDstim.txt	Procedure/versionDproc.txt	Tetris		COMB		COMB	OFF	AdHoc_Recall_L2	28	Study	No	3	AdHoc_Recall_L2	ON		3000								
A36O6HV8LCXLJR	Collector	1	37	2016-05-27T11:53:11-07:00	4	2	Stimuli/versionDstim.txt	Procedure/versionDproc.txt	Tetris		SCALE		SCALE	OFF	AdHoc_Recall_L2	23	Study	No	3	AdHoc_Recall_L2	ON		3000								
A36O6HV8LCXLJR	Collector	1	38	2016-05-27T11:53:15-07:00	4	2	Stimuli/versionDstim.txt	Procedure/versionDproc.txt	Tetris		VANITY		VANITY	OFF	AdHoc_Recall_L2	37	Study	No	3	AdHoc_Recall_L2	ON		3000								
A36O6HV8LCXLJR	Collector	1	39	2016-05-27T11:53:20-07:00	5	2	Stimuli/versionDstim.txt	Procedure/versionDproc.txt	Tetris		SHAVER		SHAVER	OFF	AdHoc_Recall_L2	33	Study	No	3	AdHoc_Recall_L2	ON		3000								
A36O6HV8LCXLJR	Collector	1	40	2016-05-27T11:53:24-07:00	4	2	Stimuli/versionDstim.txt	Procedure/versionDproc.txt	Tetris		CANDLE		CANDLE	OFF	AdHoc_Recall_L2	41	Study	No	3	AdHoc_Recall_L2	ON		3000								
A36O6HV8LCXLJR	Collector	1	41	2016-05-27T11:53:28-07:00	4	2	Stimuli/versionDstim.txt	Procedure/versionDproc.txt	Tetris		TWEEZERS		TWEEZERS	OFF	AdHoc_Recall_L2	38	Study	No	3	AdHoc_Recall_L2	ON		3000								
A36O6HV8LCXLJR	Collector	1	42	2016-05-27T11:53:33-07:00	5	2	Stimuli/versionDstim.txt	Procedure/versionDproc.txt	Tetris		PLUNGER		PLUNGER	OFF	AdHoc_Recall_L2	35	Study	No	3	AdHoc_Recall_L2	ON		3000								
A36O6HV8LCXLJR	Collector	1	43	2016-05-27T11:53:37-07:00	4	2	Stimuli/versionDstim.txt	Procedure/versionDproc.txt	Tetris		MAT		MAT	OFF	AdHoc_Recall_L2	24	Study	No	3	AdHoc_Recall_L2	ON		3000								
A36O6HV8LCXLJR	Collector	1	44	2016-05-27T11:53:42-07:00	5	2	Stimuli/versionDstim.txt	Procedure/versionDproc.txt	Tetris		LOOFAH		LOOFAH	OFF	AdHoc_Recall_L2	40	Study	No	3	AdHoc_Recall_L2	ON		3000								
A36O6HV8LCXLJR	Collector	1	45	2016-05-27T11:53:59-07:00	17	2	Stimuli/versionDstim.txt	Procedure/versionDproc.txt	Tetris		n/a	n/a	n/a	n/a	n/a	0	Instruct	N/A	User	Recall Instructions: Recall the words that you saw from memory by typing them into the dialog box on the next screen. You will have 1 minute. Click the button below to begin.	OFF		14820								
A36O6HV8LCXLJR	Collector	1	46	2016-05-27T11:55:03-07:00	64	2	Stimuli/versionDstim.txt	Procedure/versionDproc.txt	Tetris		n/a	n/a	n/a	n/a	n/a	0	freerecall	N/A	60	Recall now in the box. Spelling will not be counted against you. The computer will advance when your minute is up.	OFF	brush <br />  <br /> curling iron <br />  <br /> shampoo <br />  <br /> lotion <br />  <br /> vanity <br />  <br /> scale <br />  <br /> tile <br />  <br /> medicine <br />  <br /> comb <br />  <br /> shaver	60000	1520	59010						
A36O6HV8LCXLJR	Collector	1	47	2016-05-27T11:55:21-07:00	18	2	Stimuli/versionDstim.txt	Procedure/versionDproc.txt	Tetris		n/a	n/a	n/a	n/a	n/a	0	Instruct	N/A	User	Click the button below for the next list.	OFF		15690								
A36O6HV8LCXLJR	Collector	1	48	2016-05-27T11:55:25-07:00	4	2	Stimuli/versionDstim.txt	Procedure/versionDproc.txt	Tetris		ALARM		ALARM	OFF	AdHoc_Recall_L3	52	Study	No	3	AdHoc_Recall_L3	ON		3000								
A36O6HV8LCXLJR	Collector	1	49	2016-05-27T11:55:29-07:00	4	2	Stimuli/versionDstim.txt	Procedure/versionDproc.txt	Tetris		TATTOO		TATTOO	OFF	AdHoc_Recall_L3	58	Study	No	3	AdHoc_Recall_L3	ON		3000								
A36O6HV8LCXLJR	Collector	1	50	2016-05-27T11:55:33-07:00	4	2	Stimuli/versionDstim.txt	Procedure/versionDproc.txt	Tetris		WEIGHTS		WEIGHTS	OFF	AdHoc_Recall_L3	46	Study	No	3	AdHoc_Recall_L3	ON		3000								
A36O6HV8LCXLJR	Collector	1	51	2016-05-27T11:55:37-07:00	4	2	Stimuli/versionDstim.txt	Procedure/versionDproc.txt	Tetris		INMATE		INMATE	OFF	AdHoc_Recall_L3	56	Study	No	3	AdHoc_Recall_L3	ON		3000								
A36O6HV8LCXLJR	Collector	1	52	2016-05-27T11:55:41-07:00	4	2	Stimuli/versionDstim.txt	Procedure/versionDproc.txt	Tetris		GUARD		GUARD	OFF	AdHoc_Recall_L3	49	Study	No	3	AdHoc_Recall_L3	ON		3000								
A36O6HV8LCXLJR	Collector	1	53	2016-05-27T11:55:45-07:00	4	2	Stimuli/versionDstim.txt	Procedure/versionDproc.txt	Tetris		SHACKLE		SHACKLE	OFF	AdHoc_Recall_L3	54	Study	No	3	AdHoc_Recall_L3	ON		3000								
A36O6HV8LCXLJR	Collector	1	54	2016-05-27T11:55:49-07:00	4	2	Stimuli/versionDstim.txt	Procedure/versionDproc.txt	Tetris		DETECTIVE		DETECTIVE	OFF	AdHoc_Recall_L3	61	Study	No	3	AdHoc_Recall_L3	ON		3000								
A36O6HV8LCXLJR	Collector	1	55	2016-05-27T11:55:53-07:00	4	2	Stimuli/versionDstim.txt	Procedure/versionDproc.txt	Tetris		PISTOL		PISTOL	OFF	AdHoc_Recall_L3	42	Study	No	3	AdHoc_Recall_L3	ON		3000								
A36O6HV8LCXLJR	Collector	1	56	2016-05-27T11:55:57-07:00	4	2	Stimuli/versionDstim.txt	Procedure/versionDproc.txt	Tetris		TOWER		TOWER	OFF	AdHoc_Recall_L3	51	Study	No	3	AdHoc_Recall_L3	ON		3000								
A36O6HV8LCXLJR	Collector	1	57	2016-05-27T11:56:01-07:00	4	2	Stimuli/versionDstim.txt	Procedure/versionDproc.txt	Tetris		CAFETERIA		CAFETERIA	OFF	AdHoc_Recall_L3	48	Study	No	3	AdHoc_Recall_L3	ON		3000								
A36O6HV8LCXLJR	Collector	1	58	2016-05-27T11:56:06-07:00	5	2	Stimuli/versionDstim.txt	Procedure/versionDproc.txt	Tetris		CHAIN		CHAIN	OFF	AdHoc_Recall_L3	53	Study	No	3	AdHoc_Recall_L3	ON		3000								
A36O6HV8LCXLJR	Collector	1	59	2016-05-27T11:56:10-07:00	4	2	Stimuli/versionDstim.txt	Procedure/versionDproc.txt	Tetris		OFFICER		OFFICER	OFF	AdHoc_Recall_L3	57	Study	No	3	AdHoc_Recall_L3	ON		3000								
A36O6HV8LCXLJR	Collector	1	60	2016-05-27T11:56:15-07:00	5	2	Stimuli/versionDstim.txt	Procedure/versionDproc.txt	Tetris		FINGERPRINTS		FINGERPRINTS	OFF	AdHoc_Recall_L3	45	Study	No	3	AdHoc_Recall_L3	ON		3000								
A36O6HV8LCXLJR	Collector	1	61	2016-05-27T11:56:19-07:00	4	2	Stimuli/versionDstim.txt	Procedure/versionDproc.txt	Tetris		BARS		BARS	OFF	AdHoc_Recall_L3	44	Study	No	3	AdHoc_Recall_L3	ON		3000								
A36O6HV8LCXLJR	Collector	1	62	2016-05-27T11:56:24-07:00	5	2	Stimuli/versionDstim.txt	Procedure/versionDproc.txt	Tetris		CHAINLINK		CHAINLINK	OFF	AdHoc_Recall_L3	50	Study	No	3	AdHoc_Recall_L3	ON		3000								
A36O6HV8LCXLJR	Collector	1	63	2016-05-27T11:56:28-07:00	4	2	Stimuli/versionDstim.txt	Procedure/versionDproc.txt	Tetris		CELL		CELL	OFF	AdHoc_Recall_L3	43	Study	No	3	AdHoc_Recall_L3	ON		3000								
A36O6HV8LCXLJR	Collector	1	64	2016-05-27T11:56:33-07:00	5	2	Stimuli/versionDstim.txt	Procedure/versionDproc.txt	Tetris		FIGHTS		FIGHTS	OFF	AdHoc_Recall_L3	55	Study	No	3	AdHoc_Recall_L3	ON		3000								
A36O6HV8LCXLJR	Collector	1	65	2016-05-27T11:56:37-07:00	4	2	Stimuli/versionDstim.txt	Procedure/versionDproc.txt	Tetris		NEEDLE		NEEDLE	OFF	AdHoc_Recall_L3	59	Study	No	3	AdHoc_Recall_L3	ON		3000								
A36O6HV8LCXLJR	Collector	1	66	2016-05-27T11:56:40-07:00	3	2	Stimuli/versionDstim.txt	Procedure/versionDproc.txt	Tetris		BUNKBED		BUNKBED	OFF	AdHoc_Recall_L3	47	Study	No	3	AdHoc_Recall_L3	ON		3000								
A36O6HV8LCXLJR	Collector	1	67	2016-05-27T11:56:44-07:00	4	2	Stimuli/versionDstim.txt	Procedure/versionDproc.txt	Tetris		CIGARETTE		CIGARETTE	OFF	AdHoc_Recall_L3	60	Study	No	3	AdHoc_Recall_L3	ON		3000								
A36O6HV8LCXLJR	Collector	1	68	2016-05-27T11:56:52-07:00	8	2	Stimuli/versionDstim.txt	Procedure/versionDproc.txt	Tetris		n/a	n/a	n/a	n/a	n/a	0	Instruct	N/A	User	Recall Instructions: Recall the words that you saw from memory by typing them into the dialog box on the next screen. You will have 1 minute. Click the button below to begin.	OFF		6020								
A36O6HV8LCXLJR	Collector	1	69	2016-05-27T11:57:56-07:00	64	2	Stimuli/versionDstim.txt	Procedure/versionDproc.txt	Tetris		n/a	n/a	n/a	n/a	n/a	0	freerecall	N/A	60	Recall now in the box. Spelling will not be counted against you. The computer will advance when your minute is up.	OFF	inmate <br />  <br /> guard <br />  <br /> detective <br />  <br /> pistol <br />  <br /> tower <br />  <br /> cell <br />  <br /> bunkbed <br />  <br /> cafeteria <br />  <br /> fingerprint <br />  <br /> 	60000	1230	36720						
A36O6HV8LCXLJR	Collector	1	70	2016-05-27T11:58:07-07:00	11	2	Stimuli/versionDstim.txt	Procedure/versionDproc.txt	Tetris		n/a	n/a	n/a	n/a	n/a	0	Instruct	N/A	User	Click the button below for the next list.	OFF		9000								
A36O6HV8LCXLJR	Collector	1	71	2016-05-27T11:58:12-07:00	5	2	Stimuli/versionDstim.txt	Procedure/versionDproc.txt	Tetris		BARRACKS		BARRACKS	OFF	Cat_Recall_L4	81	Study	No	3	Cat_Recall_L4	ON		3000								
A36O6HV8LCXLJR	Collector	1	72	2016-05-27T11:58:16-07:00	4	2	Stimuli/versionDstim.txt	Procedure/versionDproc.txt	Tetris		HOUSEBOAT		HOUSEBOAT	OFF	Cat_Recall_L4	73	Study	No	3	Cat_Recall_L4	ON		3000								
A36O6HV8LCXLJR	Collector	1	73	2016-05-27T11:58:20-07:00	4	2	Stimuli/versionDstim.txt	Procedure/versionDproc.txt	Tetris		ROOM		ROOM	OFF	Cat_Recall_L4	75	Study	No	3	Cat_Recall_L4	ON		3000								
A36O6HV8LCXLJR	Collector	1	74	2016-05-27T11:58:24-07:00	4	2	Stimuli/versionDstim.txt	Procedure/versionDproc.txt	Tetris		IGLOO		IGLOO	OFF	Cat_Recall_L4	69	Study	No	3	Cat_Recall_L4	ON		3000								
A36O6HV8LCXLJR	Collector	1	75	2016-05-27T11:58:28-07:00	4	2	Stimuli/versionDstim.txt	Procedure/versionDproc.txt	Tetris		COTTAGE		COTTAGE	OFF	Cat_Recall_L4	67	Study	No	3	Cat_Recall_L4	ON		3000								
A36O6HV8LCXLJR	Collector	1	76	2016-05-27T11:58:32-07:00	4	2	Stimuli/versionDstim.txt	Procedure/versionDproc.txt	Tetris		BUILDING		BUILDING	OFF	Cat_Recall_L4	76	Study	No	3	Cat_Recall_L4	ON		3000								
A36O6HV8LCXLJR	Collector	1	77	2016-05-27T11:58:37-07:00	5	2	Stimuli/versionDstim.txt	Procedure/versionDproc.txt	Tetris		LODGE		LODGE	OFF	Cat_Recall_L4	70	Study	No	3	Cat_Recall_L4	ON		3000								
A36O6HV8LCXLJR	Collector	1	78	2016-05-27T11:58:41-07:00	4	2	Stimuli/versionDstim.txt	Procedure/versionDproc.txt	Tetris		MANSION		MANSION	OFF	Cat_Recall_L4	66	Study	No	3	Cat_Recall_L4	ON		3000								
A36O6HV8LCXLJR	Collector	1	79	2016-05-27T11:58:44-07:00	3	2	Stimuli/versionDstim.txt	Procedure/versionDproc.txt	Tetris		PALACE		PALACE	OFF	Cat_Recall_L4	79	Study	No	3	Cat_Recall_L4	ON		3000								
A36O6HV8LCXLJR	Collector	1	80	2016-05-27T11:58:49-07:00	5	2	Stimuli/versionDstim.txt	Procedure/versionDproc.txt	Tetris		PENTHOUSE		PENTHOUSE	OFF	Cat_Recall_L4	80	Study	No	3	Cat_Recall_L4	ON		3000								
A36O6HV8LCXLJR	Collector	1	81	2016-05-27T11:58:53-07:00	4	2	Stimuli/versionDstim.txt	Procedure/versionDproc.txt	Tetris		DORM		DORM	OFF	Cat_Recall_L4	68	Study	No	3	Cat_Recall_L4	ON		3000								
A36O6HV8LCXLJR	Collector	1	82	2016-05-27T11:58:57-07:00	4	2	Stimuli/versionDstim.txt	Procedure/versionDproc.txt	Tetris		SHACK 		SHACK 	OFF	Cat_Recall_L4	65	Study	No	3	Cat_Recall_L4	ON		3000								
A36O6HV8LCXLJR	Collector	1	83	2016-05-27T11:59:01-07:00	4	2	Stimuli/versionDstim.txt	Procedure/versionDproc.txt	Tetris		TRAILER		TRAILER	OFF	Cat_Recall_L4	63	Study	No	3	Cat_Recall_L4	ON		3000								
A36O6HV8LCXLJR	Collector	1	84	2016-05-27T11:59:05-07:00	4	2	Stimuli/versionDstim.txt	Procedure/versionDproc.txt	Tetris		MOTEL		MOTEL	OFF	Cat_Recall_L4	64	Study	No	3	Cat_Recall_L4	ON		3000								
A36O6HV8LCXLJR	Collector	1	85	2016-05-27T11:59:09-07:00	4	2	Stimuli/versionDstim.txt	Procedure/versionDproc.txt	Tetris		CASTLE		CASTLE	OFF	Cat_Recall_L4	72	Study	No	3	Cat_Recall_L4	ON		3000								
A36O6HV8LCXLJR	Collector	1	86	2016-05-27T11:59:13-07:00	4	2	Stimuli/versionDstim.txt	Procedure/versionDproc.txt	Tetris		TEPEE		TEPEE	OFF	Cat_Recall_L4	71	Study	No	3	Cat_Recall_L4	ON		3000								
A36O6HV8LCXLJR	Collector	1	87	2016-05-27T11:59:18-07:00	5	2	Stimuli/versionDstim.txt	Procedure/versionDproc.txt	Tetris		TOWNHOME		TOWNHOME	OFF	Cat_Recall_L4	78	Study	No	3	Cat_Recall_L4	ON		3000								
A36O6HV8LCXLJR	Collector	1	88	2016-05-27T11:59:22-07:00	4	2	Stimuli/versionDstim.txt	Procedure/versionDproc.txt	Tetris		BUNGALOW		BUNGALOW	OFF	Cat_Recall_L4	74	Study	No	3	Cat_Recall_L4	ON		3000								
A36O6HV8LCXLJR	Collector	1	89	2016-05-27T11:59:26-07:00	4	2	Stimuli/versionDstim.txt	Procedure/versionDproc.txt	Tetris		DUPLEX		DUPLEX	OFF	Cat_Recall_L4	77	Study	No	3	Cat_Recall_L4	ON		3000								
A36O6HV8LCXLJR	Collector	1	90	2016-05-27T11:59:30-07:00	4	2	Stimuli/versionDstim.txt	Procedure/versionDproc.txt	Tetris		HOTEL		HOTEL	OFF	Cat_Recall_L4	62	Study	No	3	Cat_Recall_L4	ON		3000								
A36O6HV8LCXLJR	Collector	1	91	2016-05-27T11:59:39-07:00	9	2	Stimuli/versionDstim.txt	Procedure/versionDproc.txt	Tetris		n/a	n/a	n/a	n/a	n/a	0	Instruct	N/A	User	Recall Instructions: Recall the words that you saw from memory by typing them into the dialog box on the next screen. You will have 1 minute. Click the button below to begin.	OFF		7730								
A36O6HV8LCXLJR	Collector	1	92	2016-05-27T12:00:44-07:00	65	2	Stimuli/versionDstim.txt	Procedure/versionDproc.txt	Tetris		n/a	n/a	n/a	n/a	n/a	0	freerecall	N/A	60	Recall now in the box. Spelling will not be counted against you. The computer will advance when your minute is up.	OFF	bungalow <br />  <br /> tepee <br />  <br /> igloo <br />  <br /> hotel <br />  <br /> duplex <br />  <br /> trailer <br />  <br /> motel <br />  <br /> houseboat <br />  <br /> barracks <br />  <br /> room <br />  <br /> mansion <br />  <br /> 	60000	1500	59600						
A36O6HV8LCXLJR	Collector	1	93	2016-05-27T12:00:55-07:00	11	2	Stimuli/versionDstim.txt	Procedure/versionDproc.txt	Tetris		n/a	n/a	n/a	n/a	n/a	0	Instruct	N/A	User	Click the button below for the next list.	OFF		9450								
A36O6HV8LCXLJR	Collector	1	94	2016-05-27T12:00:59-07:00	4	2	Stimuli/versionDstim.txt	Procedure/versionDproc.txt	Tetris		SHEARS		SHEARS	OFF	Cat_Recall_L5	88	Study	No	3	Cat_Recall_L5	ON		3000								
A36O6HV8LCXLJR	Collector	1	95	2016-05-27T12:01:04-07:00	5	2	Stimuli/versionDstim.txt	Procedure/versionDproc.txt	Tetris		TROWEL		TROWEL	OFF	Cat_Recall_L5	87	Study	No	3	Cat_Recall_L5	ON		3000								
A36O6HV8LCXLJR	Collector	1	96	2016-05-27T12:01:07-07:00	3	2	Stimuli/versionDstim.txt	Procedure/versionDproc.txt	Tetris		SCYTHE		SCYTHE	OFF	Cat_Recall_L5	98	Study	No	3	Cat_Recall_L5	ON		3000								
A36O6HV8LCXLJR	Collector	1	97	2016-05-27T12:01:12-07:00	5	2	Stimuli/versionDstim.txt	Procedure/versionDproc.txt	Tetris		BASKET		BASKET	OFF	Cat_Recall_L5	84	Study	No	3	Cat_Recall_L5	ON		3000								
A36O6HV8LCXLJR	Collector	1	98	2016-05-27T12:01:17-07:00	5	2	Stimuli/versionDstim.txt	Procedure/versionDproc.txt	Tetris		BUCKET		BUCKET	OFF	Cat_Recall_L5	89	Study	No	3	Cat_Recall_L5	ON		3000								
A36O6HV8LCXLJR	Collector	1	99	2016-05-27T12:01:21-07:00	4	2	Stimuli/versionDstim.txt	Procedure/versionDproc.txt	Tetris		EDGER		EDGER	OFF	Cat_Recall_L5	100	Study	No	3	Cat_Recall_L5	ON		3000								
A36O6HV8LCXLJR	Collector	1	100	2016-05-27T12:01:25-07:00	4	2	Stimuli/versionDstim.txt	Procedure/versionDproc.txt	Tetris		COMPOST		COMPOST	OFF	Cat_Recall_L5	94	Study	No	3	Cat_Recall_L5	ON		3000								
A36O6HV8LCXLJR	Collector	1	101	2016-05-27T12:01:29-07:00	4	2	Stimuli/versionDstim.txt	Procedure/versionDproc.txt	Tetris		MACHETE		MACHETE	OFF	Cat_Recall_L5	96	Study	No	3	Cat_Recall_L5	ON		3000								
A36O6HV8LCXLJR	Collector	1	102	2016-05-27T12:01:33-07:00	4	2	Stimuli/versionDstim.txt	Procedure/versionDproc.txt	Tetris		WHEELBARROW		WHEELBARROW	OFF	Cat_Recall_L5	99	Study	No	3	Cat_Recall_L5	ON		3000								
A36O6HV8LCXLJR	Collector	1	103	2016-05-27T12:01:37-07:00	4	2	Stimuli/versionDstim.txt	Procedure/versionDproc.txt	Tetris		PLOW		PLOW	OFF	Cat_Recall_L5	85	Study	No	3	Cat_Recall_L5	ON		3000								
A36O6HV8LCXLJR	Collector	1	104	2016-05-27T12:01:41-07:00	4	2	Stimuli/versionDstim.txt	Procedure/versionDproc.txt	Tetris		CLIPPERS		CLIPPERS	OFF	Cat_Recall_L5	95	Study	No	3	Cat_Recall_L5	ON		3000								
A36O6HV8LCXLJR	Collector	1	105	2016-05-27T12:01:46-07:00	5	2	Stimuli/versionDstim.txt	Procedure/versionDproc.txt	Tetris		PITCHFORK		PITCHFORK	OFF	Cat_Recall_L5	90	Study	No	3	Cat_Recall_L5	ON		3000								
A36O6HV8LCXLJR	Collector	1	106	2016-05-27T12:01:49-07:00	3	2	Stimuli/versionDstim.txt	Procedure/versionDproc.txt	Tetris		PICK		PICK	OFF	Cat_Recall_L5	83	Study	No	3	Cat_Recall_L5	ON		3000								
A36O6HV8LCXLJR	Collector	1	107	2016-05-27T12:01:54-07:00	5	2	Stimuli/versionDstim.txt	Procedure/versionDproc.txt	Tetris		SPADE		SPADE	OFF	Cat_Recall_L5	82	Study	No	3	Cat_Recall_L5	ON		3000								
A36O6HV8LCXLJR	Collector	1	108	2016-05-27T12:01:58-07:00	4	2	Stimuli/versionDstim.txt	Procedure/versionDproc.txt	Tetris		SIEVE		SIEVE	OFF	Cat_Recall_L5	101	Study	No	3	Cat_Recall_L5	ON		3000								
A36O6HV8LCXLJR	Collector	1	109	2016-05-27T12:02:02-07:00	4	2	Stimuli/versionDstim.txt	Procedure/versionDproc.txt	Tetris		SPRINKLER		SPRINKLER	OFF	Cat_Recall_L5	91	Study	No	3	Cat_Recall_L5	ON		3000								
A36O6HV8LCXLJR	Collector	1	110	2016-05-27T12:02:06-07:00	4	2	Stimuli/versionDstim.txt	Procedure/versionDproc.txt	Tetris		SEEDS		SEEDS	OFF	Cat_Recall_L5	86	Study	No	3	Cat_Recall_L5	ON		3000								
A36O6HV8LCXLJR	Collector	1	111	2016-05-27T12:02:11-07:00	5	2	Stimuli/versionDstim.txt	Procedure/versionDproc.txt	Tetris		PLANTER		PLANTER	OFF	Cat_Recall_L5	93	Study	No	3	Cat_Recall_L5	ON		3000								
A36O6HV8LCXLJR	Collector	1	112	2016-05-27T12:02:15-07:00	4	2	Stimuli/versionDstim.txt	Procedure/versionDproc.txt	Tetris		TRIMMER		TRIMMER	OFF	Cat_Recall_L5	97	Study	No	3	Cat_Recall_L5	ON		3000								
A36O6HV8LCXLJR	Collector	1	113	2016-05-27T12:02:19-07:00	4	2	Stimuli/versionDstim.txt	Procedure/versionDproc.txt	Tetris		CULTIVATOR		CULTIVATOR	OFF	Cat_Recall_L5	92	Study	No	3	Cat_Recall_L5	ON		3000								
A36O6HV8LCXLJR	Collector	1	114	2016-05-27T12:03:07-07:00	48	2	Stimuli/versionDstim.txt	Procedure/versionDproc.txt	Tetris		n/a	n/a	n/a	n/a	n/a	0	Instruct	N/A	User	Recall Instructions: Recall the words that you saw from memory by typing them into the dialog box on the next screen. You will have 1 minute. Click the button below to begin.	OFF		44270								
A36O6HV8LCXLJR	Collector	1	115	2016-05-27T12:04:10-07:00	63	2	Stimuli/versionDstim.txt	Procedure/versionDproc.txt	Tetris		n/a	n/a	n/a	n/a	n/a	0	freerecall	N/A	60	Recall now in the box. Spelling will not be counted against you. The computer will advance when your minute is up.	OFF	shears <br />  <br /> seeds <br />  <br /> cultivator <br />  <br /> sprinkler <br />  <br /> compost <br />  <br /> pick <br />  <br /> scythe <br />  <br /> wheelbarrow <br />  <br /> 	60000	1590	41060						
A36O6HV8LCXLJR	Collector	1	116	2016-05-27T12:04:16-07:00	6	2	Stimuli/versionDstim.txt	Procedure/versionDproc.txt	Tetris		n/a	n/a	n/a	n/a	n/a	0	Instruct	N/A	User	Click the button below for the next list.	OFF		4430								
A36O6HV8LCXLJR	Collector	1	117	2016-05-27T12:04:20-07:00	4	2	Stimuli/versionDstim.txt	Procedure/versionDproc.txt	Tetris		JACKPOT		JACKPOT	OFF	Unrel_Recall_L6	120	Study	No	3	Unrel_Recall_L6	ON		3000								
A36O6HV8LCXLJR	Collector	1	118	2016-05-27T12:04:24-07:00	4	2	Stimuli/versionDstim.txt	Procedure/versionDproc.txt	Tetris		DAY		DAY	OFF	Unrel_Recall_L6	109	Study	No	3	Unrel_Recall_L6	ON		3000								
A36O6HV8LCXLJR	Collector	1	119	2016-05-27T12:04:28-07:00	4	2	Stimuli/versionDstim.txt	Procedure/versionDproc.txt	Tetris		LANDMARK		LANDMARK	OFF	Unrel_Recall_L6	103	Study	No	3	Unrel_Recall_L6	ON		3000								
A36O6HV8LCXLJR	Collector	1	120	2016-05-27T12:04:33-07:00	5	2	Stimuli/versionDstim.txt	Procedure/versionDproc.txt	Tetris		BLISTER		BLISTER	OFF	Unrel_Recall_L6	106	Study	No	3	Unrel_Recall_L6	ON		3000								
A36O6HV8LCXLJR	Collector	1	121	2016-05-27T12:04:40-07:00	7	2	Stimuli/versionDstim.txt	Procedure/versionDproc.txt	Tetris		ANVIL		ANVIL	OFF	Unrel_Recall_L6	102	Study	No	3	Unrel_Recall_L6	ON		3000								
A36O6HV8LCXLJR	Collector	1	122	2016-05-27T12:04:43-07:00	3	2	Stimuli/versionDstim.txt	Procedure/versionDproc.txt	Tetris		LASER		LASER	OFF	Unrel_Recall_L6	121	Study	No	3	Unrel_Recall_L6	ON		3000								
A36O6HV8LCXLJR	Collector	1	123	2016-05-27T12:04:47-07:00	4	2	Stimuli/versionDstim.txt	Procedure/versionDproc.txt	Tetris		ZONE		ZONE	OFF	Unrel_Recall_L6	105	Study	No	3	Unrel_Recall_L6	ON		3000								
A36O6HV8LCXLJR	Collector	1	124	2016-05-27T12:04:52-07:00	5	2	Stimuli/versionDstim.txt	Procedure/versionDproc.txt	Tetris		KNOCK		KNOCK	OFF	Unrel_Recall_L6	111	Study	No	3	Unrel_Recall_L6	ON		3000								
A36O6HV8LCXLJR	Collector	1	125	2016-05-27T12:04:56-07:00	4	2	Stimuli/versionDstim.txt	Procedure/versionDproc.txt	Tetris		MAUVE		MAUVE	OFF	Unrel_Recall_L6	112	Study	No	3	Unrel_Recall_L6	ON		3000								
A36O6HV8LCXLJR	Collector	1	126	2016-05-27T12:05:00-07:00	4	2	Stimuli/versionDstim.txt	Procedure/versionDproc.txt	Tetris		FOUL		FOUL	OFF	Unrel_Recall_L6	108	Study	No	3	Unrel_Recall_L6	ON		3000								
A36O6HV8LCXLJR	Collector	1	127	2016-05-27T12:05:04-07:00	4	2	Stimuli/versionDstim.txt	Procedure/versionDproc.txt	Tetris		WINDSHIELD		WINDSHIELD	OFF	Unrel_Recall_L6	104	Study	No	3	Unrel_Recall_L6	ON		3000								
A36O6HV8LCXLJR	Collector	1	128	2016-05-27T12:05:09-07:00	5	2	Stimuli/versionDstim.txt	Procedure/versionDproc.txt	Tetris		BOULDER		BOULDER	OFF	Unrel_Recall_L6	110	Study	No	3	Unrel_Recall_L6	ON		3000								
A36O6HV8LCXLJR	Collector	1	129	2016-05-27T12:05:13-07:00	4	2	Stimuli/versionDstim.txt	Procedure/versionDproc.txt	Tetris		LADDER		LADDER	OFF	Unrel_Recall_L6	117	Study	No	3	Unrel_Recall_L6	ON		3000								
A36O6HV8LCXLJR	Collector	1	130	2016-05-27T12:05:17-07:00	4	2	Stimuli/versionDstim.txt	Procedure/versionDproc.txt	Tetris		MASCOT		MASCOT	OFF	Unrel_Recall_L6	118	Study	No	3	Unrel_Recall_L6	ON		3000								
A36O6HV8LCXLJR	Collector	1	131	2016-05-27T12:05:22-07:00	5	2	Stimuli/versionDstim.txt	Procedure/versionDproc.txt	Tetris		WIZARD		WIZARD	OFF	Unrel_Recall_L6	107	Study	No	3	Unrel_Recall_L6	ON		3000								
A36O6HV8LCXLJR	Collector	1	132	2016-05-27T12:05:25-07:00	3	2	Stimuli/versionDstim.txt	Procedure/versionDproc.txt	Tetris		IRON		IRON	OFF	Unrel_Recall_L6	114	Study	No	3	Unrel_Recall_L6	ON		3000								
A36O6HV8LCXLJR	Collector	1	133	2016-05-27T12:05:29-07:00	4	2	Stimuli/versionDstim.txt	Procedure/versionDproc.txt	Tetris		BROTH		BROTH	OFF	Unrel_Recall_L6	115	Study	No	3	Unrel_Recall_L6	ON		3000								
A36O6HV8LCXLJR	Collector	1	134	2016-05-27T12:05:34-07:00	5	2	Stimuli/versionDstim.txt	Procedure/versionDproc.txt	Tetris		JAZZ		JAZZ	OFF	Unrel_Recall_L6	116	Study	No	3	Unrel_Recall_L6	ON		3000								
A36O6HV8LCXLJR	Collector	1	135	2016-05-27T12:05:38-07:00	4	2	Stimuli/versionDstim.txt	Procedure/versionDproc.txt	Tetris		DOWEL		DOWEL	OFF	Unrel_Recall_L6	113	Study	No	3	Unrel_Recall_L6	ON		3000								
A36O6HV8LCXLJR	Collector	1	136	2016-05-27T12:05:42-07:00	4	2	Stimuli/versionDstim.txt	Procedure/versionDproc.txt	Tetris		CLASS		CLASS	OFF	Unrel_Recall_L6	119	Study	No	3	Unrel_Recall_L6	ON		3000								
A36O6HV8LCXLJR	Collector	1	137	2016-05-27T12:05:50-07:00	8	2	Stimuli/versionDstim.txt	Procedure/versionDproc.txt	Tetris		n/a	n/a	n/a	n/a	n/a	0	Instruct	N/A	User	Recall Instructions: Recall the words that you saw from memory by typing them into the dialog box on the next screen. You will have 1 minute. Click the button below to begin.	OFF		3450								
A36O6HV8LCXLJR	Collector	1	138	2016-05-27T12:06:53-07:00	63	2	Stimuli/versionDstim.txt	Procedure/versionDproc.txt	Tetris		n/a	n/a	n/a	n/a	n/a	0	freerecall	N/A	60	Recall now in the box. Spelling will not be counted against you. The computer will advance when your minute is up.	OFF	class <br />  <br /> wizard <br />  <br /> ladder <br />  <br /> boulder <br />  <br /> broth <br />  <br /> zone <br />  <br /> blister <br />  <br /> 	60000	6390	57660						
A36O6HV8LCXLJR	Collector	1	139	2016-05-27T12:07:11-07:00	18	2	Stimuli/versionDstim.txt	Procedure/versionDproc.txt	Tetris		n/a	n/a	n/a	n/a	n/a	0	Instruct	N/A	User	Now you will complete a recognition memory test based on the last 6 lists that you have studied. A word will be displayed on the computer screen and you are to decide whether the word was studied in the last 6 lists. If the word was studied, click the "yes" button. If the word was not studied, click the "no" button. Respond as quickly as possible without compromising accuracy.	OFF		15380								
A36O6HV8LCXLJR	Collector	1	140	2016-05-27T12:07:14-07:00	3	2	Stimuli/versionDstim.txt	Procedure/versionDproc.txt	Tetris		n/a	n/a	n/a	n/a	n/a	0	Instruct	N/A	User	Click the button below to begin the test.	OFF		2680								
A36O6HV8LCXLJR	Collector	1	141	2016-05-27T12:07:17-07:00	3	2	Stimuli/versionDstim.txt	Procedure/versionDproc.txt	Tetris		ALPACA		ALPACA	OFF	NPLI_Cat_Recall	170	seqrec	No	User	RGN Test	ON	No	1630								
A36O6HV8LCXLJR	Collector	1	142	2016-05-27T12:07:19-07:00	2	2	Stimuli/versionDstim.txt	Procedure/versionDproc.txt	Tetris		ORPHAN		ORPHAN	OFF	NPLI_Unrel_Recall	148	seqrec	No	User	RGN Test	ON	No	1250								
A36O6HV8LCXLJR	Collector	1	143	2016-05-27T12:07:27-07:00	8	2	Stimuli/versionDstim.txt	Procedure/versionDproc.txt	Tetris		CABIN		CABIN	OFF	CI_Cat_Recall	291	seqrec	No	User	RGN Test	ON	Yes	3520								
A36O6HV8LCXLJR	Collector	1	144	2016-05-27T12:07:29-07:00	2	2	Stimuli/versionDstim.txt	Procedure/versionDproc.txt	Tetris		PALACE		PALACE	OFF	LI_Cat_Recall	250	seqrec	No	User	RGN Test	ON	Yes	1380								
A36O6HV8LCXLJR	Collector	1	145	2016-05-27T12:07:32-07:00	3	2	Stimuli/versionDstim.txt	Procedure/versionDproc.txt	Tetris		SHOVEL		SHOVEL	OFF	CI_Cat_Recall	292	seqrec	No	User	RGN Test	ON	Yes	1730								
A36O6HV8LCXLJR	Collector	1	146	2016-05-27T12:07:34-07:00	2	2	Stimuli/versionDstim.txt	Procedure/versionDproc.txt	Tetris		MEDICINE		MEDICINE	OFF	LI_AdHoc_Recall	224	seqrec	No	User	RGN Test	ON	Yes	1190								
A36O6HV8LCXLJR	Collector	1	147	2016-05-27T12:07:40-07:00	6	2	Stimuli/versionDstim.txt	Procedure/versionDproc.txt	Tetris		TRIMMER		TRIMMER	OFF	LI_Cat_Recall	259	seqrec	No	User	RGN Test	ON	Yes	4060								
A36O6HV8LCXLJR	Collector	1	148	2016-05-27T12:07:42-07:00	2	2	Stimuli/versionDstim.txt	Procedure/versionDproc.txt	Tetris		DUPLEX		DUPLEX	OFF	LI_Cat_Recall	249	seqrec	No	User	RGN Test	ON	Yes	1320								
A36O6HV8LCXLJR	Collector	1	149	2016-05-27T12:07:44-07:00	2	2	Stimuli/versionDstim.txt	Procedure/versionDproc.txt	Tetris		BICYCLE		BICYCLE	OFF	NPLI_AdHoc_Recall	137	seqrec	No	User	RGN Test	ON	No	1400								
A36O6HV8LCXLJR	Collector	1	150	2016-05-27T12:07:47-07:00	3	2	Stimuli/versionDstim.txt	Procedure/versionDproc.txt	Tetris		DREIDEL		DREIDEL	OFF	NPLI_AdHoc_Recall	133	seqrec	No	User	RGN Test	ON	No	1160								
A36O6HV8LCXLJR	Collector	1	151	2016-05-27T12:07:51-07:00	4	2	Stimuli/versionDstim.txt	Procedure/versionDproc.txt	Tetris		BRISKET		BRISKET	OFF	CI_Unrel_Recall	298	seqrec	No	User	RGN Test	ON	No	3410								
A36O6HV8LCXLJR	Collector	1	152	2016-05-27T12:07:54-07:00	3	2	Stimuli/versionDstim.txt	Procedure/versionDproc.txt	Tetris		PINT		PINT	OFF	NPLI_Unrel_Recall	157	seqrec	No	User	RGN Test	ON	No	1230								
A36O6HV8LCXLJR	Collector	1	153	2016-05-27T12:07:56-07:00	2	2	Stimuli/versionDstim.txt	Procedure/versionDproc.txt	Tetris		DWARF		DWARF	OFF	LI_Unrel_Recall	219	seqrec	No	User	RGN Test	ON	Yes	1340								
A36O6HV8LCXLJR	Collector	1	154	2016-05-27T12:07:58-07:00	2	2	Stimuli/versionDstim.txt	Procedure/versionDproc.txt	Tetris		STAIRS		STAIRS	OFF	NPLI_AdHoc_Recall	179	seqrec	No	User	RGN Test	ON	No	1440								
A36O6HV8LCXLJR	Collector	1	155	2016-05-27T12:08:01-07:00	3	2	Stimuli/versionDstim.txt	Procedure/versionDproc.txt	Tetris		CHAIN		CHAIN	OFF	LI_AdHoc_Recall	237	seqrec	No	User	RGN Test	ON	Yes	1250								
A36O6HV8LCXLJR	Collector	1	156	2016-05-27T12:08:03-07:00	2	2	Stimuli/versionDstim.txt	Procedure/versionDproc.txt	Tetris		TRAILER		TRAILER	OFF	LI_Cat_Recall	242	seqrec	No	User	RGN Test	ON	Yes	1150								
A36O6HV8LCXLJR	Collector	1	157	2016-05-27T12:08:05-07:00	2	2	Stimuli/versionDstim.txt	Procedure/versionDproc.txt	Tetris		BUCKET		BUCKET	OFF	LI_Cat_Recall	255	seqrec	No	User	RGN Test	ON	Yes	1360								
A36O6HV8LCXLJR	Collector	1	158	2016-05-27T12:08:08-07:00	3	2	Stimuli/versionDstim.txt	Procedure/versionDproc.txt	Tetris		TOOTHBRUSH		TOOTHBRUSH	OFF	CI_AdHoc_Recall	279	seqrec	No	User	RGN Test	ON	Yes	1840								
A36O6HV8LCXLJR	Collector	1	159	2016-05-27T12:08:10-07:00	2	2	Stimuli/versionDstim.txt	Procedure/versionDproc.txt	Tetris		ADMIRAL		ADMIRAL	OFF	NPCI_Unrel_Recall	192	seqrec	No	User	RGN Test	ON	No	1320								
A36O6HV8LCXLJR	Collector	1	160	2016-05-27T12:08:12-07:00	2	2	Stimuli/versionDstim.txt	Procedure/versionDproc.txt	Tetris		CLASS		CLASS	OFF	LI_Unrel_Recall	270	seqrec	No	User	RGN Test	ON	Yes	1300								
A36O6HV8LCXLJR	Collector	1	161	2016-05-27T12:08:15-07:00	3	2	Stimuli/versionDstim.txt	Procedure/versionDproc.txt	Tetris		LABEL		LABEL	OFF	CI_Unrel_Recall	276	seqrec	No	User	RGN Test	ON	No	1370								
A36O6HV8LCXLJR	Collector	1	162	2016-05-27T12:08:17-07:00	2	2	Stimuli/versionDstim.txt	Procedure/versionDproc.txt	Tetris		DIARY		DIARY	OFF	CI_Unrel_Recall	300	seqrec	No	User	RGN Test	ON	No	1120								
A36O6HV8LCXLJR	Collector	1	163	2016-05-27T12:08:19-07:00	2	2	Stimuli/versionDstim.txt	Procedure/versionDproc.txt	Tetris		CAVE		CAVE	OFF	CI_Cat_Recall	289	seqrec	No	User	RGN Test	ON	No	1250								
A36O6HV8LCXLJR	Collector	1	164	2016-05-27T12:08:23-07:00	4	2	Stimuli/versionDstim.txt	Procedure/versionDproc.txt	Tetris		INJURY		INJURY	OFF	CI_Unrel_Recall	275	seqrec	No	User	RGN Test	ON	No	1230								
A36O6HV8LCXLJR	Collector	1	165	2016-05-27T12:08:26-07:00	3	2	Stimuli/versionDstim.txt	Procedure/versionDproc.txt	Tetris		KNIGHT		KNIGHT	OFF	NPCI_Unrel_Recall	197	seqrec	No	User	RGN Test	ON	No	1370								
A36O6HV8LCXLJR	Collector	1	166	2016-05-27T12:08:28-07:00	2	2	Stimuli/versionDstim.txt	Procedure/versionDproc.txt	Tetris		SIEVE		SIEVE	OFF	LI_Cat_Recall	261	seqrec	No	User	RGN Test	ON	Yes	1170								
A36O6HV8LCXLJR	Collector	1	167	2016-05-27T12:08:30-07:00	2	2	Stimuli/versionDstim.txt	Procedure/versionDproc.txt	Tetris		HARVEST		HARVEST	OFF	NPLI_Unrel_Recall	150	seqrec	No	User	RGN Test	ON	No	1030								
A36O6HV8LCXLJR	Collector	1	168	2016-05-27T12:08:32-07:00	2	2	Stimuli/versionDstim.txt	Procedure/versionDproc.txt	Tetris		WINCH		WINCH	OFF	LI_Unrel_Recall	215	seqrec	No	User	RGN Test	ON	Yes	1340								
A36O6HV8LCXLJR	Collector	1	169	2016-05-27T12:08:34-07:00	2	2	Stimuli/versionDstim.txt	Procedure/versionDproc.txt	Tetris		GARLIC		GARLIC	OFF	NPCI_Cat_Recall	182	seqrec	No	User	RGN Test	ON	No	1180								
A36O6HV8LCXLJR	Collector	1	170	2016-05-27T12:08:37-07:00	3	2	Stimuli/versionDstim.txt	Procedure/versionDproc.txt	Tetris		DOWEL		DOWEL	OFF	LI_Unrel_Recall	267	seqrec	No	User	RGN Test	ON	Yes	1470								
A36O6HV8LCXLJR	Collector	1	171	2016-05-27T12:08:39-07:00	2	2	Stimuli/versionDstim.txt	Procedure/versionDproc.txt	Tetris		COLOGNE		COLOGNE	OFF	CI_AdHoc_Recall	280	seqrec	No	User	RGN Test	ON	No	1240								
A36O6HV8LCXLJR	Collector	1	172	2016-05-27T12:08:41-07:00	2	2	Stimuli/versionDstim.txt	Procedure/versionDproc.txt	Tetris		FLURRY		FLURRY	OFF	LI_Unrel_Recall	214	seqrec	No	User	RGN Test	ON	Yes	1330								
A36O6HV8LCXLJR	Collector	1	173	2016-05-27T12:08:43-07:00	2	2	Stimuli/versionDstim.txt	Procedure/versionDproc.txt	Tetris		LASER		LASER	OFF	LI_Unrel_Recall	271	seqrec	No	User	RGN Test	ON	Yes	1070								
A36O6HV8LCXLJR	Collector	1	174	2016-05-27T12:08:50-07:00	7	2	Stimuli/versionDstim.txt	Procedure/versionDproc.txt	Tetris		WOOL		WOOL	OFF	NPCI_Cat_Recall	202	seqrec	No	User	RGN Test	ON	No	1360								
A36O6HV8LCXLJR	Collector	1	175	2016-05-27T12:08:56-07:00	6	2	Stimuli/versionDstim.txt	Procedure/versionDproc.txt	Tetris		WORSTED		WORSTED	OFF	NPLI_Cat_Recall	163	seqrec	No	User	RGN Test	ON	No	1100								
A36O6HV8LCXLJR	Collector	1	176	2016-05-27T12:08:58-07:00	2	2	Stimuli/versionDstim.txt	Procedure/versionDproc.txt	Tetris		TABLE		TABLE	OFF	NPLI_AdHoc_Recall	172	seqrec	No	User	RGN Test	ON	No	1210								
A36O6HV8LCXLJR	Collector	1	177	2016-05-27T12:09:02-07:00	4	2	Stimuli/versionDstim.txt	Procedure/versionDproc.txt	Tetris		TOOTHPICK		TOOTHPICK	OFF	NPCI_AdHoc_Recall	211	seqrec	No	User	RGN Test	ON	No	2280								
A36O6HV8LCXLJR	Collector	1	178	2016-05-27T12:09:05-07:00	3	2	Stimuli/versionDstim.txt	Procedure/versionDproc.txt	Tetris		FENCE		FENCE	OFF	NPCI_AdHoc_Recall	210	seqrec	No	User	RGN Test	ON	No	2780								
A36O6HV8LCXLJR	Collector	1	179	2016-05-27T12:09:08-07:00	3	2	Stimuli/versionDstim.txt	Procedure/versionDproc.txt	Tetris		FAN		FAN	OFF	NPCI_AdHoc_Recall	187	seqrec	No	User	RGN Test	ON	No	1320								
A36O6HV8LCXLJR	Collector	1	180	2016-05-27T12:09:10-07:00	2	2	Stimuli/versionDstim.txt	Procedure/versionDproc.txt	Tetris		PICK		PICK	OFF	LI_Cat_Recall	252	seqrec	No	User	RGN Test	ON	Yes	1160								
A36O6HV8LCXLJR	Collector	1	181	2016-05-27T12:09:17-07:00	7	2	Stimuli/versionDstim.txt	Procedure/versionDproc.txt	Tetris		AVENUE		AVENUE	OFF	LI_Unrel_Recall	213	seqrec	No	User	RGN Test	ON	Yes	2760								
A36O6HV8LCXLJR	Collector	1	182	2016-05-27T12:09:19-07:00	2	2	Stimuli/versionDstim.txt	Procedure/versionDproc.txt	Tetris		WIZARD		WIZARD	OFF	LI_Unrel_Recall	264	seqrec	No	User	RGN Test	ON	Yes	1040								
A36O6HV8LCXLJR	Collector	1	183	2016-05-27T12:09:22-07:00	3	2	Stimuli/versionDstim.txt	Procedure/versionDproc.txt	Tetris		TENT		TENT	OFF	CI_Cat_Recall	288	seqrec	No	User	RGN Test	ON	Yes	1900								
A36O6HV8LCXLJR	Collector	1	184	2016-05-27T12:09:24-07:00	2	2	Stimuli/versionDstim.txt	Procedure/versionDproc.txt	Tetris		SHACK		SHACK	OFF	LI_Cat_Recall	243	seqrec	No	User	RGN Test	ON	Yes	1060								
A36O6HV8LCXLJR	Collector	1	185	2016-05-27T12:09:26-07:00	2	2	Stimuli/versionDstim.txt	Procedure/versionDproc.txt	Tetris		QUICHE		QUICHE	OFF	NPLI_Unrel_Recall	152	seqrec	No	User	RGN Test	ON	No	1300								
A36O6HV8LCXLJR	Collector	1	186	2016-05-27T12:09:28-07:00	2	2	Stimuli/versionDstim.txt	Procedure/versionDproc.txt	Tetris		VANILLA		VANILLA	OFF	NPLI_Cat_Recall	122	seqrec	No	User	RGN Test	ON	No	1080								
A36O6HV8LCXLJR	Collector	1	187	2016-05-27T12:09:31-07:00	3	2	Stimuli/versionDstim.txt	Procedure/versionDproc.txt	Tetris		TERRY		TERRY	OFF	NPLI_Cat_Recall	166	seqrec	No	User	RGN Test	ON	No	1380								
A36O6HV8LCXLJR	Collector	1	188	2016-05-27T12:09:33-07:00	2	2	Stimuli/versionDstim.txt	Procedure/versionDproc.txt	Tetris		KEROSENE		KEROSENE	OFF	NPLI_Unrel_Recall	156	seqrec	No	User	RGN Test	ON	No	1280								
A36O6HV8LCXLJR	Collector	1	189	2016-05-27T12:09:35-07:00	2	2	Stimuli/versionDstim.txt	Procedure/versionDproc.txt	Tetris		VAPOR		VAPOR	OFF	NPLI_Unrel_Recall	158	seqrec	No	User	RGN Test	ON	No	1090								
A36O6HV8LCXLJR	Collector	1	190	2016-05-27T12:09:37-07:00	2	2	Stimuli/versionDstim.txt	Procedure/versionDproc.txt	Tetris		JERSEY		JERSEY	OFF	NPLI_Cat_Recall	168	seqrec	No	User	RGN Test	ON	No	1150								
A36O6HV8LCXLJR	Collector	1	191	2016-05-27T12:09:43-07:00	6	2	Stimuli/versionDstim.txt	Procedure/versionDproc.txt	Tetris		FLANNEL		FLANNEL	OFF	NPLI_Cat_Recall	165	seqrec	No	User	RGN Test	ON	Yes	4400								
A36O6HV8LCXLJR	Collector	1	192	2016-05-27T12:09:45-07:00	2	2	Stimuli/versionDstim.txt	Procedure/versionDproc.txt	Tetris		CINNAMON		CINNAMON	OFF	NPCI_Cat_Recall	183	seqrec	No	User	RGN Test	ON	No	1200								
A36O6HV8LCXLJR	Collector	1	193	2016-05-27T12:09:48-07:00	3	2	Stimuli/versionDstim.txt	Procedure/versionDproc.txt	Tetris		DETECTIVE		DETECTIVE	OFF	LI_AdHoc_Recall	241	seqrec	No	User	RGN Test	ON	Yes	1390								
A36O6HV8LCXLJR	Collector	1	194	2016-05-27T12:09:50-07:00	2	2	Stimuli/versionDstim.txt	Procedure/versionDproc.txt	Tetris		SALT		SALT	OFF	NPCI_Cat_Recall	186	seqrec	No	User	RGN Test	ON	No	1100								
A36O6HV8LCXLJR	Collector	1	195	2016-05-27T12:09:55-07:00	5	2	Stimuli/versionDstim.txt	Procedure/versionDproc.txt	Tetris		PLOW		PLOW	OFF	LI_Cat_Recall	253	seqrec	No	User	RGN Test	ON	Yes	3820								
A36O6HV8LCXLJR	Collector	1	196	2016-05-27T12:09:57-07:00	2	2	Stimuli/versionDstim.txt	Procedure/versionDproc.txt	Tetris		CHEESECAKE		CHEESECAKE	OFF	CI_Unrel_Recall	273	seqrec	No	User	RGN Test	ON	No	1290								
A36O6HV8LCXLJR	Collector	1	197	2016-05-27T12:10:00-07:00	3	2	Stimuli/versionDstim.txt	Procedure/versionDproc.txt	Tetris		DEODORANT		DEODORANT	OFF	LI_AdHoc_Recall	226	seqrec	No	User	RGN Test	ON	Yes	1660								
A36O6HV8LCXLJR	Collector	1	198	2016-05-27T12:10:02-07:00	2	2	Stimuli/versionDstim.txt	Procedure/versionDproc.txt	Tetris		CHILI POWDER		CHILI POWDER	OFF	NPLI_Cat_Recall	129	seqrec	No	User	RGN Test	ON	No	1130								
A36O6HV8LCXLJR	Collector	1	199	2016-05-27T12:10:05-07:00	3	2	Stimuli/versionDstim.txt	Procedure/versionDproc.txt	Tetris		WHIRLPOOL		WHIRLPOOL	OFF	NPCI_Unrel_Recall	198	seqrec	No	User	RGN Test	ON	No	930								
A36O6HV8LCXLJR	Collector	1	200	2016-05-27T12:10:07-07:00	2	2	Stimuli/versionDstim.txt	Procedure/versionDproc.txt	Tetris		DETOUR		DETOUR	OFF	LI_Unrel_Recall	212	seqrec	No	User	RGN Test	ON	No	1530								
A36O6HV8LCXLJR	Collector	1	201	2016-05-27T12:10:18-07:00	11	2	Stimuli/versionDstim.txt	Procedure/versionDproc.txt	Tetris		BARREL		BARREL	OFF	NPCI_AdHoc_Recall	209	seqrec	No	User	RGN Test	ON	No	9080								
A36O6HV8LCXLJR	Collector	1	202	2016-05-27T12:10:22-07:00	4	2	Stimuli/versionDstim.txt	Procedure/versionDproc.txt	Tetris		PENCIL		PENCIL	OFF	NPLI_AdHoc_Recall	174	seqrec	No	User	RGN Test	ON	No	3020								
A36O6HV8LCXLJR	Collector	1	203	2016-05-27T12:10:24-07:00	2	2	Stimuli/versionDstim.txt	Procedure/versionDproc.txt	Tetris		ONION SALT		ONION SALT	OFF	NPLI_Cat_Recall	124	seqrec	No	User	RGN Test	ON	No	950								
A36O6HV8LCXLJR	Collector	1	204	2016-05-27T12:10:26-07:00	2	2	Stimuli/versionDstim.txt	Procedure/versionDproc.txt	Tetris		DOOR		DOOR	OFF	NPLI_AdHoc_Recall	173	seqrec	No	User	RGN Test	ON	No	1450								
A36O6HV8LCXLJR	Collector	1	205	2016-05-27T12:10:28-07:00	2	2	Stimuli/versionDstim.txt	Procedure/versionDproc.txt	Tetris		HOUSEBOAT		HOUSEBOAT	OFF	LI_Cat_Recall	247	seqrec	No	User	RGN Test	ON	Yes	1380								
A36O6HV8LCXLJR	Collector	1	206	2016-05-27T12:10:31-07:00	3	2	Stimuli/versionDstim.txt	Procedure/versionDproc.txt	Tetris		ACROBAT		ACROBAT	OFF	NPCI_Unrel_Recall	200	seqrec	No	User	RGN Test	ON	No	1320								
A36O6HV8LCXLJR	Collector	1	207	2016-05-27T12:10:34-07:00	3	2	Stimuli/versionDstim.txt	Procedure/versionDproc.txt	Tetris		FINGERPRINTS		FINGERPRINTS	OFF	LI_AdHoc_Recall	233	seqrec	No	User	RGN Test	ON	Yes	1460								
A36O6HV8LCXLJR	Collector	1	208	2016-05-27T12:10:36-07:00	2	2	Stimuli/versionDstim.txt	Procedure/versionDproc.txt	Tetris		VALVE		VALVE	OFF	NPLI_Unrel_Recall	154	seqrec	No	User	RGN Test	ON	No	1290								
A36O6HV8LCXLJR	Collector	1	209	2016-05-27T12:10:38-07:00	2	2	Stimuli/versionDstim.txt	Procedure/versionDproc.txt	Tetris		GLOVE		GLOVE	OFF	CI_Cat_Recall	295	seqrec	No	User	RGN Test	ON	No	940								
A36O6HV8LCXLJR	Collector	1	210	2016-05-27T12:10:40-07:00	2	2	Stimuli/versionDstim.txt	Procedure/versionDproc.txt	Tetris		BROTH		BROTH	OFF	LI_Unrel_Recall	268	seqrec	No	User	RGN Test	ON	Yes	1460								
A36O6HV8LCXLJR	Collector	1	211	2016-05-27T12:10:50-07:00	10	2	Stimuli/versionDstim.txt	Procedure/versionDproc.txt	Tetris		WARDEN		WARDEN	OFF	CI_AdHoc_Recall	286	seqrec	No	User	RGN Test	ON	Yes	8120								
A36O6HV8LCXLJR	Collector	1	212	2016-05-27T12:10:52-07:00	2	2	Stimuli/versionDstim.txt	Procedure/versionDproc.txt	Tetris		MANUAL		MANUAL	OFF	NPLI_Unrel_Recall	149	seqrec	No	User	RGN Test	ON	No	1080								
A36O6HV8LCXLJR	Collector	1	213	2016-05-27T12:10:56-07:00	4	2	Stimuli/versionDstim.txt	Procedure/versionDproc.txt	Tetris		CURRY		CURRY	OFF	NPLI_Cat_Recall	126	seqrec	No	User	RGN Test	ON	No	1080								
A36O6HV8LCXLJR	Collector	1	214	2016-05-27T12:10:58-07:00	2	2	Stimuli/versionDstim.txt	Procedure/versionDproc.txt	Tetris		DESERT		DESERT	OFF	NPLI_Unrel_Recall	144	seqrec	No	User	RGN Test	ON	No	800								
A36O6HV8LCXLJR	Collector	1	215	2016-05-27T12:11:01-07:00	3	2	Stimuli/versionDstim.txt	Procedure/versionDproc.txt	Tetris		TROWEL		TROWEL	OFF	LI_Cat_Recall	254	seqrec	No	User	RGN Test	ON	Yes	1650								
A36O6HV8LCXLJR	Collector	1	216	2016-05-27T12:11:03-07:00	2	2	Stimuli/versionDstim.txt	Procedure/versionDproc.txt	Tetris		HAZE		HAZE	OFF	NPCI_Unrel_Recall	195	seqrec	No	User	RGN Test	ON	No	1260								
A36O6HV8LCXLJR	Collector	1	217	2016-05-27T12:11:05-07:00	2	2	Stimuli/versionDstim.txt	Procedure/versionDproc.txt	Tetris		STICK		STICK	OFF	NPCI_AdHoc_Recall	208	seqrec	No	User	RGN Test	ON	No	1100								
A36O6HV8LCXLJR	Collector	1	218	2016-05-27T12:11:07-07:00	2	2	Stimuli/versionDstim.txt	Procedure/versionDproc.txt	Tetris		SPRINKLER		SPRINKLER	OFF	LI_Cat_Recall	256	seqrec	No	User	RGN Test	ON	Yes	1310								
A36O6HV8LCXLJR	Collector	1	219	2016-05-27T12:11:09-07:00	2	2	Stimuli/versionDstim.txt	Procedure/versionDproc.txt	Tetris		ROTOR		ROTOR	OFF	NPCI_AdHoc_Recall	191	seqrec	No	User	RGN Test	ON	No	1170								
A36O6HV8LCXLJR	Collector	1	220	2016-05-27T12:11:12-07:00	3	2	Stimuli/versionDstim.txt	Procedure/versionDproc.txt	Tetris		SCALE		SCALE	OFF	LI_AdHoc_Recall	222	seqrec	No	User	RGN Test	ON	Yes	1340								
A36O6HV8LCXLJR	Collector	1	221	2016-05-27T12:11:14-07:00	2	2	Stimuli/versionDstim.txt	Procedure/versionDproc.txt	Tetris		HAYSTACK		HAYSTACK	OFF	NPCI_Unrel_Recall	194	seqrec	No	User	RGN Test	ON	No	1530								
A36O6HV8LCXLJR	Collector	1	222	2016-05-27T12:11:17-07:00	3	2	Stimuli/versionDstim.txt	Procedure/versionDproc.txt	Tetris		BENCH		BENCH	OFF	NPLI_AdHoc_Recall	178	seqrec	No	User	RGN Test	ON	No	1260								
A36O6HV8LCXLJR	Collector	1	223	2016-05-27T12:11:20-07:00	3	2	Stimuli/versionDstim.txt	Procedure/versionDproc.txt	Tetris		FILTER		FILTER	OFF	NPCI_Unrel_Recall	199	seqrec	No	User	RGN Test	ON	No	1850								
A36O6HV8LCXLJR	Collector	1	224	2016-05-27T12:11:23-07:00	3	2	Stimuli/versionDstim.txt	Procedure/versionDproc.txt	Tetris		ACORN		ACORN	OFF	NPLI_Unrel_Recall	160	seqrec	No	User	RGN Test	ON	No	980								
A36O6HV8LCXLJR	Collector	1	225	2016-05-27T12:11:25-07:00	2	2	Stimuli/versionDstim.txt	Procedure/versionDproc.txt	Tetris		LOCKS		LOCKS	OFF	CI_AdHoc_Recall	283	seqrec	No	User	RGN Test	ON	No	860								
A36O6HV8LCXLJR	Collector	1	226	2016-05-27T12:11:27-07:00	2	2	Stimuli/versionDstim.txt	Procedure/versionDproc.txt	Tetris		SATIN		SATIN	OFF	NPCI_Cat_Recall	206	seqrec	No	User	RGN Test	ON	No	850								
A36O6HV8LCXLJR	Collector	1	227	2016-05-27T12:11:30-07:00	3	2	Stimuli/versionDstim.txt	Procedure/versionDproc.txt	Tetris		RAZOR		RAZOR	OFF	CI_AdHoc_Recall	281	seqrec	No	User	RGN Test	ON	Yes	1450								
A36O6HV8LCXLJR	Collector	1	228	2016-05-27T12:11:32-07:00	2	2	Stimuli/versionDstim.txt	Procedure/versionDproc.txt	Tetris		LANDMARK		LANDMARK	OFF	LI_Unrel_Recall	262	seqrec	No	User	RGN Test	ON	Yes	1460								
A36O6HV8LCXLJR	Collector	1	229	2016-05-27T12:11:34-07:00	2	2	Stimuli/versionDstim.txt	Procedure/versionDproc.txt	Tetris		PLUNGER		PLUNGER	OFF	LI_AdHoc_Recall	228	seqrec	No	User	RGN Test	ON	No	1390								
A36O6HV8LCXLJR	Collector	1	230	2016-05-27T12:11:36-07:00	2	2	Stimuli/versionDstim.txt	Procedure/versionDproc.txt	Tetris		POLYESTER		POLYESTER	OFF	NPLI_Cat_Recall	167	seqrec	No	User	RGN Test	ON	No	900								
A36O6HV8LCXLJR	Collector	1	231	2016-05-27T12:11:39-07:00	3	2	Stimuli/versionDstim.txt	Procedure/versionDproc.txt	Tetris		FIGHTS		FIGHTS	OFF	LI_AdHoc_Recall	238	seqrec	No	User	RGN Test	ON	Yes	1180								
A36O6HV8LCXLJR	Collector	1	232	2016-05-27T12:11:41-07:00	2	2	Stimuli/versionDstim.txt	Procedure/versionDproc.txt	Tetris		ZONE		ZONE	OFF	LI_Unrel_Recall	263	seqrec	No	User	RGN Test	ON	Yes	1110								
A36O6HV8LCXLJR	Collector	1	233	2016-05-27T12:11:44-07:00	3	2	Stimuli/versionDstim.txt	Procedure/versionDproc.txt	Tetris		HANDCUFFS		HANDCUFFS	OFF	CI_AdHoc_Recall	282	seqrec	No	User	RGN Test	ON	Yes	1880								
A36O6HV8LCXLJR	Collector	1	234	2016-05-27T12:11:47-07:00	3	2	Stimuli/versionDstim.txt	Procedure/versionDproc.txt	Tetris		CREST		CREST	OFF	NPLI_Unrel_Recall	159	seqrec	No	User	RGN Test	ON	No	1400								
A36O6HV8LCXLJR	Collector	1	235	2016-05-27T12:11:49-07:00	2	2	Stimuli/versionDstim.txt	Procedure/versionDproc.txt	Tetris		IGLOO		IGLOO	OFF	LI_Cat_Recall	245	seqrec	No	User	RGN Test	ON	Yes	1310								
A36O6HV8LCXLJR	Collector	1	236	2016-05-27T12:11:51-07:00	2	2	Stimuli/versionDstim.txt	Procedure/versionDproc.txt	Tetris		LADDER		LADDER	OFF	LI_Unrel_Recall	269	seqrec	No	User	RGN Test	ON	Yes	1020								
A36O6HV8LCXLJR	Collector	1	237	2016-05-27T12:11:53-07:00	2	2	Stimuli/versionDstim.txt	Procedure/versionDproc.txt	Tetris		CELL		CELL	OFF	LI_AdHoc_Recall	232	seqrec	No	User	RGN Test	ON	Yes	900								
A36O6HV8LCXLJR	Collector	1	238	2016-05-27T12:11:56-07:00	3	2	Stimuli/versionDstim.txt	Procedure/versionDproc.txt	Tetris		KNOCK		KNOCK	OFF	LI_Unrel_Recall	266	seqrec	No	User	RGN Test	ON	No	1800								
A36O6HV8LCXLJR	Collector	1	239	2016-05-27T12:11:58-07:00	2	2	Stimuli/versionDstim.txt	Procedure/versionDproc.txt	Tetris		EPISODE		EPISODE	OFF	NPLI_Unrel_Recall	145	seqrec	No	User	RGN Test	ON	No	980								
A36O6HV8LCXLJR	Collector	1	240	2016-05-27T12:12:00-07:00	2	2	Stimuli/versionDstim.txt	Procedure/versionDproc.txt	Tetris		BARRACKS		BARRACKS	OFF	LI_Cat_Recall	251	seqrec	No	User	RGN Test	ON	Yes	1390								
A36O6HV8LCXLJR	Collector	1	241	2016-05-27T12:12:02-07:00	2	2	Stimuli/versionDstim.txt	Procedure/versionDproc.txt	Tetris		TOILET		TOILET	OFF	CI_AdHoc_Recall	278	seqrec	No	User	RGN Test	ON	No	1370								
A36O6HV8LCXLJR	Collector	1	242	2016-05-27T12:12:05-07:00	3	2	Stimuli/versionDstim.txt	Procedure/versionDproc.txt	Tetris		JAR		JAR	OFF	LI_Unrel_Recall	216	seqrec	No	User	RGN Test	ON	Yes	1240								
A36O6HV8LCXLJR	Collector	1	243	2016-05-27T12:12:07-07:00	2	2	Stimuli/versionDstim.txt	Procedure/versionDproc.txt	Tetris		HERMIT		HERMIT	OFF	NPLI_Unrel_Recall	146	seqrec	No	User	RGN Test	ON	No	1130								
A36O6HV8LCXLJR	Collector	1	244	2016-05-27T12:12:09-07:00	2	2	Stimuli/versionDstim.txt	Procedure/versionDproc.txt	Tetris		SATELLITE		SATELLITE	OFF	NPLI_AdHoc_Recall	132	seqrec	No	User	RGN Test	ON	No	970								
A36O6HV8LCXLJR	Collector	1	245	2016-05-27T12:12:11-07:00	2	2	Stimuli/versionDstim.txt	Procedure/versionDproc.txt	Tetris		BAY LEAVES		BAY LEAVES	OFF	NPLI_Cat_Recall	125	seqrec	No	User	RGN Test	ON	No	1180								
A36O6HV8LCXLJR	Collector	1	246	2016-05-27T12:12:13-07:00	2	2	Stimuli/versionDstim.txt	Procedure/versionDproc.txt	Tetris		HAIR DRYER		HAIR DRYER	OFF	LI_AdHoc_Recall	230	seqrec	No	User	RGN Test	ON	Yes	1440								
A36O6HV8LCXLJR	Collector	1	247	2016-05-27T12:12:15-07:00	2	2	Stimuli/versionDstim.txt	Procedure/versionDproc.txt	Tetris		TURMERIC		TURMERIC	OFF	NPLI_Cat_Recall	131	seqrec	No	User	RGN Test	ON	No	1060								
A36O6HV8LCXLJR	Collector	1	248	2016-05-27T12:12:18-07:00	3	2	Stimuli/versionDstim.txt	Procedure/versionDproc.txt	Tetris		PLANTER		PLANTER	OFF	LI_Cat_Recall	257	seqrec	No	User	RGN Test	ON	Yes	1380								
A36O6HV8LCXLJR	Collector	1	249	2016-05-27T12:12:26-07:00	8	2	Stimuli/versionDstim.txt	Procedure/versionDproc.txt	Tetris		SHOWER		SHOWER	OFF	CI_AdHoc_Recall	277	seqrec	No	User	RGN Test	ON	Yes	6180								
A36O6HV8LCXLJR	Collector	1	250	2016-05-27T12:12:28-07:00	2	2	Stimuli/versionDstim.txt	Procedure/versionDproc.txt	Tetris		YO-YO		YO-YO	OFF	NPLI_AdHoc_Recall	141	seqrec	No	User	RGN Test	ON	No	1180								
A36O6HV8LCXLJR	Collector	1	251	2016-05-27T12:12:29-07:00	1	2	Stimuli/versionDstim.txt	Procedure/versionDproc.txt	Tetris		LEATHER		LEATHER	OFF	NPCI_Cat_Recall	205	seqrec	No	User	RGN Test	ON	No	940								
A36O6HV8LCXLJR	Collector	1	252	2016-05-27T12:12:31-07:00	2	2	Stimuli/versionDstim.txt	Procedure/versionDproc.txt	Tetris		LYCRA		LYCRA	OFF	NPLI_Cat_Recall	171	seqrec	No	User	RGN Test	ON	No	890								
A36O6HV8LCXLJR	Collector	1	253	2016-05-27T12:12:34-07:00	3	2	Stimuli/versionDstim.txt	Procedure/versionDproc.txt	Tetris		SKATE		SKATE	OFF	NPCI_AdHoc_Recall	189	seqrec	No	User	RGN Test	ON	No	1020								
A36O6HV8LCXLJR	Collector	1	254	2016-05-27T12:12:36-07:00	2	2	Stimuli/versionDstim.txt	Procedure/versionDproc.txt	Tetris		CANDLE		CANDLE	OFF	LI_AdHoc_Recall	231	seqrec	No	User	RGN Test	ON	Yes	1410								
A36O6HV8LCXLJR	Collector	1	255	2016-05-27T12:12:43-07:00	7	2	Stimuli/versionDstim.txt	Procedure/versionDproc.txt	Tetris		HOE		HOE	OFF	CI_Cat_Recall	293	seqrec	No	User	RGN Test	ON	No	6510								
A36O6HV8LCXLJR	Collector	1	256	2016-05-27T12:12:46-07:00	3	2	Stimuli/versionDstim.txt	Procedure/versionDproc.txt	Tetris		RAKE		RAKE	OFF	CI_Cat_Recall	294	seqrec	No	User	RGN Test	ON	No	1050								
A36O6HV8LCXLJR	Collector	1	257	2016-05-27T12:12:48-07:00	2	2	Stimuli/versionDstim.txt	Procedure/versionDproc.txt	Tetris		TILE		TILE	OFF	LI_AdHoc_Recall	223	seqrec	No	User	RGN Test	ON	Yes	1230								
A36O6HV8LCXLJR	Collector	1	258	2016-05-27T12:12:50-07:00	2	2	Stimuli/versionDstim.txt	Procedure/versionDproc.txt	Tetris		ROLLING PIN		ROLLING PIN	OFF	NPCI_AdHoc_Recall	207	seqrec	No	User	RGN Test	ON	No	1460								
A36O6HV8LCXLJR	Collector	1	259	2016-05-27T12:12:53-07:00	3	2	Stimuli/versionDstim.txt	Procedure/versionDproc.txt	Tetris		BRUSH		BRUSH	OFF	LI_AdHoc_Recall	225	seqrec	No	User	RGN Test	ON	Yes	1170								
A36O6HV8LCXLJR	Collector	1	260	2016-05-27T12:12:55-07:00	2	2	Stimuli/versionDstim.txt	Procedure/versionDproc.txt	Tetris		VANITY		VANITY	OFF	LI_AdHoc_Recall	229	seqrec	No	User	RGN Test	ON	Yes	1480								
A36O6HV8LCXLJR	Collector	1	261	2016-05-27T12:12:57-07:00	2	2	Stimuli/versionDstim.txt	Procedure/versionDproc.txt	Tetris		CEREAL		CEREAL	OFF	LI_Unrel_Recall	218	seqrec	No	User	RGN Test	ON	Yes	1030								
A36O6HV8LCXLJR	Collector	1	262	2016-05-27T12:12:59-07:00	2	2	Stimuli/versionDstim.txt	Procedure/versionDproc.txt	Tetris		RAYON		RAYON	OFF	NPCI_Cat_Recall	203	seqrec	No	User	RGN Test	ON	No	1030								
A36O6HV8LCXLJR	Collector	1	263	2016-05-27T12:13:01-07:00	2	2	Stimuli/versionDstim.txt	Procedure/versionDproc.txt	Tetris		ISSUE		ISSUE	OFF	CI_Unrel_Recall	274	seqrec	No	User	RGN Test	ON	No	920								
A36O6HV8LCXLJR	Collector	1	264	2016-05-27T12:13:03-07:00	2	2	Stimuli/versionDstim.txt	Procedure/versionDproc.txt	Tetris		GINGER		GINGER	OFF	NPLI_Cat_Recall	128	seqrec	No	User	RGN Test	ON	No	1180								
A36O6HV8LCXLJR	Collector	1	265	2016-05-27T12:13:05-07:00	2	2	Stimuli/versionDstim.txt	Procedure/versionDproc.txt	Tetris		CAROUSEL		CAROUSEL	OFF	NPCI_AdHoc_Recall	190	seqrec	No	User	RGN Test	ON	No	960								
A36O6HV8LCXLJR	Collector	1	266	2016-05-27T12:13:08-07:00	3	2	Stimuli/versionDstim.txt	Procedure/versionDproc.txt	Tetris		OFFICER		OFFICER	OFF	LI_AdHoc_Recall	239	seqrec	No	User	RGN Test	ON	Yes	1490								
A36O6HV8LCXLJR	Collector	1	267	2016-05-27T12:13:10-07:00	2	2	Stimuli/versionDstim.txt	Procedure/versionDproc.txt	Tetris		DESK		DESK	OFF	NPLI_AdHoc_Recall	175	seqrec	No	User	RGN Test	ON	No	1830								
A36O6HV8LCXLJR	Collector	1	268	2016-05-27T12:13:23-07:00	13	2	Stimuli/versionDstim.txt	Procedure/versionDproc.txt	Tetris		SLED		SLED	OFF	NPLI_AdHoc_Recall	180	seqrec	No	User	RGN Test	ON	Yes	10550								
A36O6HV8LCXLJR	Collector	1	269	2016-05-27T12:13:30-07:00	7	2	Stimuli/versionDstim.txt	Procedure/versionDproc.txt	Tetris		CALENDAR		CALENDAR	OFF	NPCI_Unrel_Recall	196	seqrec	No	User	RGN Test	ON	No	5940								
A36O6HV8LCXLJR	Collector	1	270	2016-05-27T12:13:32-07:00	2	2	Stimuli/versionDstim.txt	Procedure/versionDproc.txt	Tetris		LINEN		LINEN	OFF	NPLI_Cat_Recall	162	seqrec	No	User	RGN Test	ON	No	1080								
A36O6HV8LCXLJR	Collector	1	271	2016-05-27T12:13:35-07:00	3	2	Stimuli/versionDstim.txt	Procedure/versionDproc.txt	Tetris		LANTERN		LANTERN	OFF	NPLI_Unrel_Recall	143	seqrec	No	User	RGN Test	ON	No	1250								
A36O6HV8LCXLJR	Collector	1	272	2016-05-27T12:13:37-07:00	2	2	Stimuli/versionDstim.txt	Procedure/versionDproc.txt	Tetris		BARN		BARN	OFF	NPLI_AdHoc_Recall	181	seqrec	No	User	RGN Test	ON	No	1060								
A36O6HV8LCXLJR	Collector	1	273	2016-05-27T12:13:39-07:00	2	2	Stimuli/versionDstim.txt	Procedure/versionDproc.txt	Tetris		NEEDLE		NEEDLE	OFF	LI_AdHoc_Recall	240	seqrec	No	User	RGN Test	ON	Yes	1500								
A36O6HV8LCXLJR	Collector	1	274	2016-05-27T12:13:41-07:00	2	2	Stimuli/versionDstim.txt	Procedure/versionDproc.txt	Tetris		GYROSCOPE		GYROSCOPE	OFF	NPLI_AdHoc_Recall	136	seqrec	No	User	RGN Test	ON	No	1250								
A36O6HV8LCXLJR	Collector	1	275	2016-05-27T12:13:44-07:00	3	2	Stimuli/versionDstim.txt	Procedure/versionDproc.txt	Tetris		CLIPPERS		CLIPPERS	OFF	LI_Cat_Recall	258	seqrec	No	User	RGN Test	ON	Yes	1280								
A36O6HV8LCXLJR	Collector	1	276	2016-05-27T12:13:47-07:00	3	2	Stimuli/versionDstim.txt	Procedure/versionDproc.txt	Tetris		PAPRIKA		PAPRIKA	OFF	NPCI_Cat_Recall	184	seqrec	No	User	RGN Test	ON	No	1160								
A36O6HV8LCXLJR	Collector	1	277	2016-05-27T12:13:49-07:00	2	2	Stimuli/versionDstim.txt	Procedure/versionDproc.txt	Tetris		OREGANO		OREGANO	OFF	NPLI_Cat_Recall	123	seqrec	No	User	RGN Test	ON	No	1170								
A36O6HV8LCXLJR	Collector	1	278	2016-05-27T12:13:51-07:00	2	2	Stimuli/versionDstim.txt	Procedure/versionDproc.txt	Tetris		TEPEE		TEPEE	OFF	LI_Cat_Recall	246	seqrec	No	User	RGN Test	ON	Yes	1410								
A36O6HV8LCXLJR	Collector	1	279	2016-05-27T12:13:54-07:00	3	2	Stimuli/versionDstim.txt	Procedure/versionDproc.txt	Tetris		TOWER		TOWER	OFF	LI_AdHoc_Recall	236	seqrec	No	User	RGN Test	ON	Yes	1180								
A36O6HV8LCXLJR	Collector	1	280	2016-05-27T12:13:56-07:00	2	2	Stimuli/versionDstim.txt	Procedure/versionDproc.txt	Tetris		CANYON		CANYON	OFF	LI_Unrel_Recall	217	seqrec	No	User	RGN Test	ON	Yes	1210								
A36O6HV8LCXLJR	Collector	1	281	2016-05-27T12:13:58-07:00	2	2	Stimuli/versionDstim.txt	Procedure/versionDproc.txt	Tetris		NYLON		NYLON	OFF	NPCI_Cat_Recall	204	seqrec	No	User	RGN Test	ON	No	1200								
A36O6HV8LCXLJR	Collector	1	282	2016-05-27T12:14:00-07:00	2	2	Stimuli/versionDstim.txt	Procedure/versionDproc.txt	Tetris		ZIGZAG		ZIGZAG	OFF	CI_Unrel_Recall	272	seqrec	No	User	RGN Test	ON	No	1010								
A36O6HV8LCXLJR	Collector	1	283	2016-05-27T12:14:02-07:00	2	2	Stimuli/versionDstim.txt	Procedure/versionDproc.txt	Tetris		BLOSSOM		BLOSSOM	OFF	NPLI_Unrel_Recall	153	seqrec	No	User	RGN Test	ON	No	1260								
A36O6HV8LCXLJR	Collector	1	284	2016-05-27T12:14:04-07:00	2	2	Stimuli/versionDstim.txt	Procedure/versionDproc.txt	Tetris		MUSTARD		MUSTARD	OFF	NPCI_Cat_Recall	185	seqrec	No	User	RGN Test	ON	No	950								
A36O6HV8LCXLJR	Collector	1	285	2016-05-27T12:14:09-07:00	5	2	Stimuli/versionDstim.txt	Procedure/versionDproc.txt	Tetris		SPHERE		SPHERE	OFF	NPLI_AdHoc_Recall	134	seqrec	No	User	RGN Test	ON	No	3380								
A36O6HV8LCXLJR	Collector	1	286	2016-05-27T12:14:11-07:00	2	2	Stimuli/versionDstim.txt	Procedure/versionDproc.txt	Tetris		JUMPSUIT		JUMPSUIT	OFF	CI_AdHoc_Recall	284	seqrec	No	User	RGN Test	ON	No	890								
A36O6HV8LCXLJR	Collector	1	287	2016-05-27T12:14:13-07:00	2	2	Stimuli/versionDstim.txt	Procedure/versionDproc.txt	Tetris		DENIUM		DENIUM	OFF	NPLI_Cat_Recall	164	seqrec	No	User	RGN Test	ON	No	940								
A36O6HV8LCXLJR	Collector	1	288	2016-05-27T12:14:16-07:00	3	2	Stimuli/versionDstim.txt	Procedure/versionDproc.txt	Tetris		DAY		DAY	OFF	LI_Unrel_Recall	265	seqrec	No	User	RGN Test	ON	No	2210								
A36O6HV8LCXLJR	Collector	1	289	2016-05-27T12:14:18-07:00	2	2	Stimuli/versionDstim.txt	Procedure/versionDproc.txt	Tetris		WHEELBARROW		WHEELBARROW	OFF	LI_Cat_Recall	260	seqrec	No	User	RGN Test	ON	Yes	1360								
A36O6HV8LCXLJR	Collector	1	290	2016-05-27T12:14:21-07:00	3	2	Stimuli/versionDstim.txt	Procedure/versionDproc.txt	Tetris		CANTEEN		CANTEEN	OFF	NPLI_Unrel_Recall	151	seqrec	No	User	RGN Test	ON	No	1490								
A36O6HV8LCXLJR	Collector	1	291	2016-05-27T12:14:23-07:00	2	2	Stimuli/versionDstim.txt	Procedure/versionDproc.txt	Tetris		GUARD		GUARD	OFF	LI_AdHoc_Recall	235	seqrec	No	User	RGN Test	ON	Yes	1150								
A36O6HV8LCXLJR	Collector	1	292	2016-05-27T12:14:26-07:00	3	2	Stimuli/versionDstim.txt	Procedure/versionDproc.txt	Tetris		BUNKBED		BUNKBED	OFF	LI_AdHoc_Recall	234	seqrec	No	User	RGN Test	ON	Yes	1530								
A36O6HV8LCXLJR	Collector	1	293	2016-05-27T12:14:28-07:00	2	2	Stimuli/versionDstim.txt	Procedure/versionDproc.txt	Tetris		WINDMILL		WINDMILL	OFF	NPLI_AdHoc_Recall	140	seqrec	No	User	RGN Test	ON	No	1190								
A36O6HV8LCXLJR	Collector	1	294	2016-05-27T12:14:30-07:00	2	2	Stimuli/versionDstim.txt	Procedure/versionDproc.txt	Tetris		BILLBOARD		BILLBOARD	OFF	CI_Unrel_Recall	301	seqrec	No	User	RGN Test	ON	No	960								
A36O6HV8LCXLJR	Collector	1	295	2016-05-27T12:14:32-07:00	2	2	Stimuli/versionDstim.txt	Procedure/versionDproc.txt	Tetris		BLAZE		BLAZE	OFF	LI_Unrel_Recall	220	seqrec	No	User	RGN Test	ON	Yes	1580								
A36O6HV8LCXLJR	Collector	1	296	2016-05-27T12:14:34-07:00	2	2	Stimuli/versionDstim.txt	Procedure/versionDproc.txt	Tetris		GEAR		GEAR	OFF	NPLI_AdHoc_Recall	135	seqrec	No	User	RGN Test	ON	No	1170								
A36O6HV8LCXLJR	Collector	1	297	2016-05-27T12:14:36-07:00	2	2	Stimuli/versionDstim.txt	Procedure/versionDproc.txt	Tetris		BASEBALL BAT		BASEBALL BAT	OFF	NPLI_AdHoc_Recall	177	seqrec	No	User	RGN Test	ON	No	990								
A36O6HV8LCXLJR	Collector	1	298	2016-05-27T12:14:39-07:00	3	2	Stimuli/versionDstim.txt	Procedure/versionDproc.txt	Tetris		APARTMENT		APARTMENT	OFF	CI_Cat_Recall	287	seqrec	No	User	RGN Test	ON	Yes	1480								
A36O6HV8LCXLJR	Collector	1	299	2016-05-27T12:14:41-07:00	2	2	Stimuli/versionDstim.txt	Procedure/versionDproc.txt	Tetris		LACE		LACE	OFF	NPLI_Cat_Recall	169	seqrec	No	User	RGN Test	ON	No	1040								
A36O6HV8LCXLJR	Collector	1	300	2016-05-27T12:14:43-07:00	2	2	Stimuli/versionDstim.txt	Procedure/versionDproc.txt	Tetris		FOOTHILL		FOOTHILL	OFF	CI_Unrel_Recall	297	seqrec	No	User	RGN Test	ON	No	1000								
A36O6HV8LCXLJR	Collector	1	301	2016-05-27T12:14:45-07:00	2	2	Stimuli/versionDstim.txt	Procedure/versionDproc.txt	Tetris		PLANET		PLANET	OFF	NPCI_AdHoc_Recall	188	seqrec	No	User	RGN Test	ON	No	1110								
A36O6HV8LCXLJR	Collector	1	302	2016-05-27T12:14:47-07:00	2	2	Stimuli/versionDstim.txt	Procedure/versionDproc.txt	Tetris		CELERY SEED		CELERY SEED	OFF	NPLI_Cat_Recall	130	seqrec	No	User	RGN Test	ON	No	1280								
A36O6HV8LCXLJR	Collector	1	303	2016-05-27T12:14:49-07:00	2	2	Stimuli/versionDstim.txt	Procedure/versionDproc.txt	Tetris		CIMINAL		CIMINAL	OFF	CI_AdHoc_Recall	285	seqrec	No	User	RGN Test	ON	No	740								
A36O6HV8LCXLJR	Collector	1	304	2016-05-27T12:14:51-07:00	2	2	Stimuli/versionDstim.txt	Procedure/versionDproc.txt	Tetris		CABLE		CABLE	OFF	NPCI_Unrel_Recall	193	seqrec	No	User	RGN Test	ON	No	1090								
A36O6HV8LCXLJR	Collector	1	305	2016-05-27T12:14:53-07:00	2	2	Stimuli/versionDstim.txt	Procedure/versionDproc.txt	Tetris		ARCH		ARCH	OFF	CI_Unrel_Recall	299	seqrec	No	User	RGN Test	ON	No	870								
A36O6HV8LCXLJR	Collector	1	306	2016-05-27T12:14:57-07:00	4	2	Stimuli/versionDstim.txt	Procedure/versionDproc.txt	Tetris		SPIRAL		SPIRAL	OFF	NPLI_AdHoc_Recall	139	seqrec	No	User	RGN Test	ON	No	1150								
A36O6HV8LCXLJR	Collector	1	307	2016-05-27T12:15:03-07:00	6	2	Stimuli/versionDstim.txt	Procedure/versionDproc.txt	Tetris		SHAVER		SHAVER	OFF	LI_AdHoc_Recall	227	seqrec	No	User	RGN Test	ON	Yes	4780								
A36O6HV8LCXLJR	Collector	1	308	2016-05-27T12:15:10-07:00	7	2	Stimuli/versionDstim.txt	Procedure/versionDproc.txt	Tetris		HUT		HUT	OFF	CI_Cat_Recall	290	seqrec	No	User	RGN Test	ON	No	4520								
A36O6HV8LCXLJR	Collector	1	309	2016-05-27T12:15:14-07:00	4	2	Stimuli/versionDstim.txt	Procedure/versionDproc.txt	Tetris		CLOGS		CLOGS	OFF	NPLI_AdHoc_Recall	176	seqrec	No	User	RGN Test	ON	No	1040								
A36O6HV8LCXLJR	Collector	1	310	2016-05-27T12:15:16-07:00	2	2	Stimuli/versionDstim.txt	Procedure/versionDproc.txt	Tetris		ROSEMARY		ROSEMARY	OFF	NPLI_Cat_Recall	127	seqrec	No	User	RGN Test	ON	No	720								
A36O6HV8LCXLJR	Collector	1	311	2016-05-27T12:15:18-07:00	2	2	Stimuli/versionDstim.txt	Procedure/versionDproc.txt	Tetris		GENE		GENE	OFF	NPCI_Unrel_Recall	201	seqrec	No	User	RGN Test	ON	No	680								
A36O6HV8LCXLJR	Collector	1	312	2016-05-27T12:15:20-07:00	2	2	Stimuli/versionDstim.txt	Procedure/versionDproc.txt	Tetris		HOSE		HOSE	OFF	CI_Cat_Recall	296	seqrec	No	User	RGN Test	ON	No	1110								
A36O6HV8LCXLJR	Collector	1	313	2016-05-27T12:15:28-07:00	8	2	Stimuli/versionDstim.txt	Procedure/versionDproc.txt	Tetris		COTTAGE		COTTAGE	OFF	LI_Cat_Recall	244	seqrec	No	User	RGN Test	ON	Yes	7340								
A36O6HV8LCXLJR	Collector	1	314	2016-05-27T12:15:30-07:00	2	2	Stimuli/versionDstim.txt	Procedure/versionDproc.txt	Tetris		ROOM		ROOM	OFF	LI_Cat_Recall	248	seqrec	No	User	RGN Test	ON	Yes	910								
A36O6HV8LCXLJR	Collector	1	315	2016-05-27T12:15:33-07:00	3	2	Stimuli/versionDstim.txt	Procedure/versionDproc.txt	Tetris		WHALE		WHALE	OFF	NPLI_Unrel_Recall	147	seqrec	No	User	RGN Test	ON	No	1290								
A36O6HV8LCXLJR	Collector	1	316	2016-05-27T12:15:35-07:00	2	2	Stimuli/versionDstim.txt	Procedure/versionDproc.txt	Tetris		DEBT		DEBT	OFF	NPLI_Unrel_Recall	142	seqrec	No	User	RGN Test	ON	No	890								
A36O6HV8LCXLJR	Collector	1	317	2016-05-27T12:15:37-07:00	2	2	Stimuli/versionDstim.txt	Procedure/versionDproc.txt	Tetris		WINNER		WINNER	OFF	LI_Unrel_Recall	221	seqrec	No	User	RGN Test	ON	Yes	1550								
A36O6HV8LCXLJR	Collector	1	318	2016-05-27T12:15:41-07:00	4	2	Stimuli/versionDstim.txt	Procedure/versionDproc.txt	Tetris		TORNADO		TORNADO	OFF	NPLI_AdHoc_Recall	138	seqrec	No	User	RGN Test	ON	No	920								
A36O6HV8LCXLJR	Collector	1	319	2016-05-27T12:15:43-07:00	2	2	Stimuli/versionDstim.txt	Procedure/versionDproc.txt	Tetris		DENTIST		DENTIST	OFF	NPLI_Unrel_Recall	161	seqrec	No	User	RGN Test	ON	No	1190								
A36O6HV8LCXLJR	Collector	1	320	2016-05-27T12:15:45-07:00	2	2	Stimuli/versionDstim.txt	Procedure/versionDproc.txt	Tetris		INFANT		INFANT	OFF	NPLI_Unrel_Recall	155	seqrec	No	User	RGN Test	ON	No	790								
A36O6HV8LCXLJR	Collector	1	321	2016-05-27T12:15:48-07:00	3	2	Stimuli/versionDstim.txt	Procedure/versionDproc.txt	Tetris		n/a	n/a	n/a	n/a	n/a	0	Instruct	N/A	User	Click the button below to continue.	OFF		1840								
A36O6HV8LCXLJR	Collector	1	322	2016-05-27T12:19:12-07:00	204	2	Stimuli/versionDstim.txt	Procedure/versionDproc.txt	Tetris		n/a	n/a	n/a	n/a	n/a	0	Instruct	N/A	User	You again will be presented with 6 lists of words, each containing 20 words, but now you will be presented with the list for a second time following each list. After each list is presented, the words will be presented to you again, but in a different order. Click the button below to begin the first list.	OFF		186240								
A36O6HV8LCXLJR	Collector	1	323	2016-05-27T12:19:16-07:00	4	2	Stimuli/versionDstim.txt	Procedure/versionDproc.txt	Tetris		KNEE		KNEE	OFF	Cat_Restudy_L1	312	Study	No	3	Cat_Restudy_L1	ON		3000								
A36O6HV8LCXLJR	Collector	1	324	2016-05-27T12:19:20-07:00	4	2	Stimuli/versionDstim.txt	Procedure/versionDproc.txt	Tetris		STOMACH		STOMACH	OFF	Cat_Restudy_L1	308	Study	No	3	Cat_Restudy_L1	ON		3000								
A36O6HV8LCXLJR	Collector	1	325	2016-05-27T12:19:25-07:00	5	2	Stimuli/versionDstim.txt	Procedure/versionDproc.txt	Tetris		LIVER		LIVER	OFF	Cat_Restudy_L1	314	Study	No	3	Cat_Restudy_L1	ON		3000								
A36O6HV8LCXLJR	Collector	1	326	2016-05-27T12:19:30-07:00	5	2	Stimuli/versionDstim.txt	Procedure/versionDproc.txt	Tetris		FINGER		FINGER	OFF	Cat_Restudy_L1	305	Study	No	3	Cat_Restudy_L1	ON		3000								
A36O6HV8LCXLJR	Collector	1	327	2016-05-27T12:19:34-07:00	4	2	Stimuli/versionDstim.txt	Procedure/versionDproc.txt	Tetris		TOOTH		TOOTH	OFF	Cat_Restudy_L1	317	Study	No	3	Cat_Restudy_L1	ON		3000								
A36O6HV8LCXLJR	Collector	1	328	2016-05-27T12:19:38-07:00	4	2	Stimuli/versionDstim.txt	Procedure/versionDproc.txt	Tetris		MOUTH		MOUTH	OFF	Cat_Restudy_L1	307	Study	No	3	Cat_Restudy_L1	ON		3000								
A36O6HV8LCXLJR	Collector	1	329	2016-05-27T12:19:42-07:00	4	2	Stimuli/versionDstim.txt	Procedure/versionDproc.txt	Tetris		EYEBROW		EYEBROW	OFF	Cat_Restudy_L1	309	Study	No	3	Cat_Restudy_L1	ON		3000								
A36O6HV8LCXLJR	Collector	1	330	2016-05-27T12:19:46-07:00	4	2	Stimuli/versionDstim.txt	Procedure/versionDproc.txt	Tetris		LEGS		LEGS	OFF	Cat_Restudy_L1	302	Study	No	3	Cat_Restudy_L1	ON		3000								
A36O6HV8LCXLJR	Collector	1	331	2016-05-27T12:19:50-07:00	4	2	Stimuli/versionDstim.txt	Procedure/versionDproc.txt	Tetris		LUNGS		LUNGS	OFF	Cat_Restudy_L1	316	Study	No	3	Cat_Restudy_L1	ON		3000								
A36O6HV8LCXLJR	Collector	1	332	2016-05-27T12:19:54-07:00	4	2	Stimuli/versionDstim.txt	Procedure/versionDproc.txt	Tetris		HEAD		HEAD	OFF	Cat_Restudy_L1	303	Study	No	3	Cat_Restudy_L1	ON		3000								
A36O6HV8LCXLJR	Collector	1	333	2016-05-27T12:19:58-07:00	4	2	Stimuli/versionDstim.txt	Procedure/versionDproc.txt	Tetris		PELVIS		PELVIS	OFF	Cat_Restudy_L1	313	Study	No	3	Cat_Restudy_L1	ON		3000								
A36O6HV8LCXLJR	Collector	1	334	2016-05-27T12:20:02-07:00	4	2	Stimuli/versionDstim.txt	Procedure/versionDproc.txt	Tetris		BRAIN		BRAIN	OFF	Cat_Restudy_L1	315	Study	No	3	Cat_Restudy_L1	ON		3000								
A36O6HV8LCXLJR	Collector	1	335	2016-05-27T12:20:07-07:00	5	2	Stimuli/versionDstim.txt	Procedure/versionDproc.txt	Tetris		FOOT 		FOOT 	OFF	Cat_Restudy_L1	304	Study	No	3	Cat_Restudy_L1	ON		3000								
A36O6HV8LCXLJR	Collector	1	336	2016-05-27T12:20:11-07:00	4	2	Stimuli/versionDstim.txt	Procedure/versionDproc.txt	Tetris		ELBOW		ELBOW	OFF	Cat_Restudy_L1	318	Study	No	3	Cat_Restudy_L1	ON		3000								
A36O6HV8LCXLJR	Collector	1	337	2016-05-27T12:20:15-07:00	4	2	Stimuli/versionDstim.txt	Procedure/versionDproc.txt	Tetris		NECK		NECK	OFF	Cat_Restudy_L1	310	Study	No	3	Cat_Restudy_L1	ON		3000								
A36O6HV8LCXLJR	Collector	1	338	2016-05-27T12:20:19-07:00	4	2	Stimuli/versionDstim.txt	Procedure/versionDproc.txt	Tetris		HAND		HAND	OFF	Cat_Restudy_L1	306	Study	No	3	Cat_Restudy_L1	ON		3000								
A36O6HV8LCXLJR	Collector	1	339	2016-05-27T12:20:23-07:00	4	2	Stimuli/versionDstim.txt	Procedure/versionDproc.txt	Tetris		FACE		FACE	OFF	Cat_Restudy_L1	320	Study	No	3	Cat_Restudy_L1	ON		3000								
A36O6HV8LCXLJR	Collector	1	340	2016-05-27T12:20:27-07:00	4	2	Stimuli/versionDstim.txt	Procedure/versionDproc.txt	Tetris		TONGUE		TONGUE	OFF	Cat_Restudy_L1	321	Study	No	3	Cat_Restudy_L1	ON		3000								
A36O6HV8LCXLJR	Collector	1	341	2016-05-27T12:20:31-07:00	4	2	Stimuli/versionDstim.txt	Procedure/versionDproc.txt	Tetris		SHOULDERS		SHOULDERS	OFF	Cat_Restudy_L1	319	Study	No	3	Cat_Restudy_L1	ON		3000								
A36O6HV8LCXLJR	Collector	1	342	2016-05-27T12:20:35-07:00	4	2	Stimuli/versionDstim.txt	Procedure/versionDproc.txt	Tetris		HEART		HEART	OFF	Cat_Restudy_L1	311	Study	No	3	Cat_Restudy_L1	ON		3000								
A36O6HV8LCXLJR	Collector	1	343	2016-05-27T12:20:44-07:00	9	2	Stimuli/versionDstim.txt	Procedure/versionDproc.txt	Tetris		n/a	n/a	n/a	n/a	n/a	0	Instruct	N/A	User	Restudy Instructions: You will now view this list again, but in a different order. Click the button below to begin.	OFF		7320								
A36O6HV8LCXLJR	Collector	1	344	2016-05-27T12:20:48-07:00	4	2	Stimuli/versionDstim.txt	Procedure/versionDproc.txt	Tetris		STOMACH		STOMACH	OFF	Cat_Restudy_L1	328	Study	No	3	Cat_Restudy_L1	ON		3000								
A36O6HV8LCXLJR	Collector	1	345	2016-05-27T12:20:52-07:00	4	2	Stimuli/versionDstim.txt	Procedure/versionDproc.txt	Tetris		MOUTH		MOUTH	OFF	Cat_Restudy_L1	327	Study	No	3	Cat_Restudy_L1	ON		3000								
A36O6HV8LCXLJR	Collector	1	346	2016-05-27T12:20:56-07:00	4	2	Stimuli/versionDstim.txt	Procedure/versionDproc.txt	Tetris		HEAD		HEAD	OFF	Cat_Restudy_L1	323	Study	No	3	Cat_Restudy_L1	ON		3000								
A36O6HV8LCXLJR	Collector	1	347	2016-05-27T12:21:00-07:00	4	2	Stimuli/versionDstim.txt	Procedure/versionDproc.txt	Tetris		LUNGS		LUNGS	OFF	Cat_Restudy_L1	336	Study	No	3	Cat_Restudy_L1	ON		3000								
A36O6HV8LCXLJR	Collector	1	348	2016-05-27T12:21:05-07:00	5	2	Stimuli/versionDstim.txt	Procedure/versionDproc.txt	Tetris		FACE		FACE	OFF	Cat_Restudy_L1	340	Study	No	3	Cat_Restudy_L1	ON		3000								
A36O6HV8LCXLJR	Collector	1	349	2016-05-27T12:21:09-07:00	4	2	Stimuli/versionDstim.txt	Procedure/versionDproc.txt	Tetris		LEGS		LEGS	OFF	Cat_Restudy_L1	322	Study	No	3	Cat_Restudy_L1	ON		3000								
A36O6HV8LCXLJR	Collector	1	350	2016-05-27T12:21:15-07:00	6	2	Stimuli/versionDstim.txt	Procedure/versionDproc.txt	Tetris		NECK		NECK	OFF	Cat_Restudy_L1	330	Study	No	3	Cat_Restudy_L1	ON		3000								
A36O6HV8LCXLJR	Collector	1	351	2016-05-27T12:21:20-07:00	5	2	Stimuli/versionDstim.txt	Procedure/versionDproc.txt	Tetris		BRAIN		BRAIN	OFF	Cat_Restudy_L1	335	Study	No	3	Cat_Restudy_L1	ON		3000								
A36O6HV8LCXLJR	Collector	1	352	2016-05-27T12:21:24-07:00	4	2	Stimuli/versionDstim.txt	Procedure/versionDproc.txt	Tetris		PELVIS		PELVIS	OFF	Cat_Restudy_L1	333	Study	No	3	Cat_Restudy_L1	ON		3000								
A36O6HV8LCXLJR	Collector	1	353	2016-05-27T12:21:28-07:00	4	2	Stimuli/versionDstim.txt	Procedure/versionDproc.txt	Tetris		EYEBROW		EYEBROW	OFF	Cat_Restudy_L1	329	Study	No	3	Cat_Restudy_L1	ON		3000								
A36O6HV8LCXLJR	Collector	1	354	2016-05-27T12:21:32-07:00	4	2	Stimuli/versionDstim.txt	Procedure/versionDproc.txt	Tetris		HAND		HAND	OFF	Cat_Restudy_L1	326	Study	No	3	Cat_Restudy_L1	ON		3000								
A36O6HV8LCXLJR	Collector	1	355	2016-05-27T12:21:36-07:00	4	2	Stimuli/versionDstim.txt	Procedure/versionDproc.txt	Tetris		SHOULDERS		SHOULDERS	OFF	Cat_Restudy_L1	339	Study	No	3	Cat_Restudy_L1	ON		3000								
A36O6HV8LCXLJR	Collector	1	356	2016-05-27T12:21:40-07:00	4	2	Stimuli/versionDstim.txt	Procedure/versionDproc.txt	Tetris		HEART		HEART	OFF	Cat_Restudy_L1	331	Study	No	3	Cat_Restudy_L1	ON		3000								
A36O6HV8LCXLJR	Collector	1	357	2016-05-27T12:21:45-07:00	5	2	Stimuli/versionDstim.txt	Procedure/versionDproc.txt	Tetris		LIVER		LIVER	OFF	Cat_Restudy_L1	334	Study	No	3	Cat_Restudy_L1	ON		3000								
A36O6HV8LCXLJR	Collector	1	358	2016-05-27T12:21:49-07:00	4	2	Stimuli/versionDstim.txt	Procedure/versionDproc.txt	Tetris		TONGUE		TONGUE	OFF	Cat_Restudy_L1	341	Study	No	3	Cat_Restudy_L1	ON		3000								
A36O6HV8LCXLJR	Collector	1	359	2016-05-27T12:21:53-07:00	4	2	Stimuli/versionDstim.txt	Procedure/versionDproc.txt	Tetris		TOOTH		TOOTH	OFF	Cat_Restudy_L1	337	Study	No	3	Cat_Restudy_L1	ON		3000								
A36O6HV8LCXLJR	Collector	1	360	2016-05-27T12:21:58-07:00	5	2	Stimuli/versionDstim.txt	Procedure/versionDproc.txt	Tetris		FINGER		FINGER	OFF	Cat_Restudy_L1	325	Study	No	3	Cat_Restudy_L1	ON		3000								
A36O6HV8LCXLJR	Collector	1	361	2016-05-27T12:22:01-07:00	3	2	Stimuli/versionDstim.txt	Procedure/versionDproc.txt	Tetris		KNEE		KNEE	OFF	Cat_Restudy_L1	332	Study	No	3	Cat_Restudy_L1	ON		3000								
A36O6HV8LCXLJR	Collector	1	362	2016-05-27T12:22:06-07:00	5	2	Stimuli/versionDstim.txt	Procedure/versionDproc.txt	Tetris		FOOT 		FOOT 	OFF	Cat_Restudy_L1	324	Study	No	3	Cat_Restudy_L1	ON		3000								
A36O6HV8LCXLJR	Collector	1	363	2016-05-27T12:22:10-07:00	4	2	Stimuli/versionDstim.txt	Procedure/versionDproc.txt	Tetris		ELBOW		ELBOW	OFF	Cat_Restudy_L1	338	Study	No	3	Cat_Restudy_L1	ON		3000								
A36O6HV8LCXLJR	Collector	1	364	2016-05-27T12:22:29-07:00	19	2	Stimuli/versionDstim.txt	Procedure/versionDproc.txt	Tetris		n/a	n/a	n/a	n/a	n/a	0	Instruct	N/A	User	Click the button below for a new list.	OFF		17480								
A36O6HV8LCXLJR	Collector	1	365	2016-05-27T12:22:33-07:00	4	2	Stimuli/versionDstim.txt	Procedure/versionDproc.txt	Tetris		GOWN		GOWN	OFF	AdHoc_Restudy_L2	355	Study	No	3	AdHoc_Restudy_L2	ON		3000								
A36O6HV8LCXLJR	Collector	1	366	2016-05-27T12:22:37-07:00	4	2	Stimuli/versionDstim.txt	Procedure/versionDproc.txt	Tetris		VEIL		VEIL	OFF	AdHoc_Restudy_L2	354	Study	No	3	AdHoc_Restudy_L2	ON		3000								
A36O6HV8LCXLJR	Collector	1	367	2016-05-27T12:22:41-07:00	4	2	Stimuli/versionDstim.txt	Procedure/versionDproc.txt	Tetris		SLIP		SLIP	OFF	AdHoc_Restudy_L2	353	Study	No	3	AdHoc_Restudy_L2	ON		3000								
A36O6HV8LCXLJR	Collector	1	368	2016-05-27T12:22:45-07:00	4	2	Stimuli/versionDstim.txt	Procedure/versionDproc.txt	Tetris		SHIRT		SHIRT	OFF	AdHoc_Restudy_L2	349	Study	No	3	AdHoc_Restudy_L2	ON		3000								
A36O6HV8LCXLJR	Collector	1	369	2016-05-27T12:22:51-07:00	6	2	Stimuli/versionDstim.txt	Procedure/versionDproc.txt	Tetris		PENDANT		PENDANT	OFF	AdHoc_Restudy_L2	360	Study	No	3	AdHoc_Restudy_L2	ON		3000								
A36O6HV8LCXLJR	Collector	1	370	2016-05-27T12:22:55-07:00	4	2	Stimuli/versionDstim.txt	Procedure/versionDproc.txt	Tetris		LIPSTICK		LIPSTICK	OFF	AdHoc_Restudy_L2	346	Study	No	3	AdHoc_Restudy_L2	ON		3000								
A36O6HV8LCXLJR	Collector	1	371	2016-05-27T12:22:59-07:00	4	2	Stimuli/versionDstim.txt	Procedure/versionDproc.txt	Tetris		RING		RING	OFF	AdHoc_Restudy_L2	350	Study	No	3	AdHoc_Restudy_L2	ON		3000								
A36O6HV8LCXLJR	Collector	1	372	2016-05-27T12:23:03-07:00	4	2	Stimuli/versionDstim.txt	Procedure/versionDproc.txt	Tetris		SCARF		SCARF	OFF	AdHoc_Restudy_L2	342	Study	No	3	AdHoc_Restudy_L2	ON		3000								
A36O6HV8LCXLJR	Collector	1	373	2016-05-27T12:23:08-07:00	5	2	Stimuli/versionDstim.txt	Procedure/versionDproc.txt	Tetris		DIAMONDS		DIAMONDS	OFF	AdHoc_Restudy_L2	351	Study	No	3	AdHoc_Restudy_L2	ON		3000								
A36O6HV8LCXLJR	Collector	1	374	2016-05-27T12:23:12-07:00	4	2	Stimuli/versionDstim.txt	Procedure/versionDproc.txt	Tetris		HAT		HAT	OFF	AdHoc_Restudy_L2	343	Study	No	3	AdHoc_Restudy_L2	ON		3000								
A36O6HV8LCXLJR	Collector	1	375	2016-05-27T12:23:16-07:00	4	2	Stimuli/versionDstim.txt	Procedure/versionDproc.txt	Tetris		HEADBAND		HEADBAND	OFF	AdHoc_Restudy_L2	344	Study	No	3	AdHoc_Restudy_L2	ON		3000								
A36O6HV8LCXLJR	Collector	1	376	2016-05-27T12:23:21-07:00	5	2	Stimuli/versionDstim.txt	Procedure/versionDproc.txt	Tetris		PANTYHOSE		PANTYHOSE	OFF	AdHoc_Restudy_L2	352	Study	No	3	AdHoc_Restudy_L2	ON		3000								
A36O6HV8LCXLJR	Collector	1	377	2016-05-27T12:23:26-07:00	5	2	Stimuli/versionDstim.txt	Procedure/versionDproc.txt	Tetris		BROOCH		BROOCH	OFF	AdHoc_Restudy_L2	361	Study	No	3	AdHoc_Restudy_L2	ON		3000								
A36O6HV8LCXLJR	Collector	1	378	2016-05-27T12:23:30-07:00	4	2	Stimuli/versionDstim.txt	Procedure/versionDproc.txt	Tetris		MAKE UP		MAKE UP	OFF	AdHoc_Restudy_L2	357	Study	No	3	AdHoc_Restudy_L2	ON		3000								
A36O6HV8LCXLJR	Collector	1	379	2016-05-27T12:23:36-07:00	6	2	Stimuli/versionDstim.txt	Procedure/versionDproc.txt	Tetris		BOBBY PIN		BOBBY PIN	OFF	AdHoc_Restudy_L2	356	Study	No	3	AdHoc_Restudy_L2	ON		3000								
A36O6HV8LCXLJR	Collector	1	380	2016-05-27T12:23:40-07:00	4	2	Stimuli/versionDstim.txt	Procedure/versionDproc.txt	Tetris		BRACELET		BRACELET	OFF	AdHoc_Restudy_L2	358	Study	No	3	AdHoc_Restudy_L2	ON		3000								
A36O6HV8LCXLJR	Collector	1	381	2016-05-27T12:23:44-07:00	4	2	Stimuli/versionDstim.txt	Procedure/versionDproc.txt	Tetris		JEANS		JEANS	OFF	AdHoc_Restudy_L2	347	Study	No	3	AdHoc_Restudy_L2	ON		3000								
A36O6HV8LCXLJR	Collector	1	382	2016-05-27T12:23:48-07:00	4	2	Stimuli/versionDstim.txt	Procedure/versionDproc.txt	Tetris		PEARLS		PEARLS	OFF	AdHoc_Restudy_L2	359	Study	No	3	AdHoc_Restudy_L2	ON		3000								
A36O6HV8LCXLJR	Collector	1	383	2016-05-27T12:23:52-07:00	4	2	Stimuli/versionDstim.txt	Procedure/versionDproc.txt	Tetris		CONCEALER		CONCEALER	OFF	AdHoc_Restudy_L2	348	Study	No	3	AdHoc_Restudy_L2	ON		3000								
A36O6HV8LCXLJR	Collector	1	384	2016-05-27T12:23:56-07:00	4	2	Stimuli/versionDstim.txt	Procedure/versionDproc.txt	Tetris		EYE SHADOW		EYE SHADOW	OFF	AdHoc_Restudy_L2	345	Study	No	3	AdHoc_Restudy_L2	ON		3000								
A36O6HV8LCXLJR	Collector	1	385	2016-05-27T12:24:03-07:00	7	2	Stimuli/versionDstim.txt	Procedure/versionDproc.txt	Tetris		n/a	n/a	n/a	n/a	n/a	0	Instruct	N/A	User	Restudy Instructions: You will now view this list again, but in a different order. Click the button below to begin.	OFF		5450								
A36O6HV8LCXLJR	Collector	1	386	2016-05-27T12:24:07-07:00	4	2	Stimuli/versionDstim.txt	Procedure/versionDproc.txt	Tetris		HAT		HAT	OFF	AdHoc_Restudy_L2	363	Study	No	3	AdHoc_Restudy_L2	ON		3000								
A36O6HV8LCXLJR	Collector	1	387	2016-05-27T12:24:12-07:00	5	2	Stimuli/versionDstim.txt	Procedure/versionDproc.txt	Tetris		PEARLS		PEARLS	OFF	AdHoc_Restudy_L2	379	Study	No	3	AdHoc_Restudy_L2	ON		3000								
A36O6HV8LCXLJR	Collector	1	388	2016-05-27T12:24:16-07:00	4	2	Stimuli/versionDstim.txt	Procedure/versionDproc.txt	Tetris		LIPSTICK		LIPSTICK	OFF	AdHoc_Restudy_L2	366	Study	No	3	AdHoc_Restudy_L2	ON		3000								
A36O6HV8LCXLJR	Collector	1	389	2016-05-27T12:24:20-07:00	4	2	Stimuli/versionDstim.txt	Procedure/versionDproc.txt	Tetris		BOBBY PIN		BOBBY PIN	OFF	AdHoc_Restudy_L2	376	Study	No	3	AdHoc_Restudy_L2	ON		3000								
A36O6HV8LCXLJR	Collector	1	390	2016-05-27T12:24:24-07:00	4	2	Stimuli/versionDstim.txt	Procedure/versionDproc.txt	Tetris		SHIRT		SHIRT	OFF	AdHoc_Restudy_L2	369	Study	No	3	AdHoc_Restudy_L2	ON		3000								
A36O6HV8LCXLJR	Collector	1	391	2016-05-27T12:24:28-07:00	4	2	Stimuli/versionDstim.txt	Procedure/versionDproc.txt	Tetris		VEIL		VEIL	OFF	AdHoc_Restudy_L2	374	Study	No	3	AdHoc_Restudy_L2	ON		3000								
A36O6HV8LCXLJR	Collector	1	392	2016-05-27T12:24:34-07:00	6	2	Stimuli/versionDstim.txt	Procedure/versionDproc.txt	Tetris		HEADBAND		HEADBAND	OFF	AdHoc_Restudy_L2	364	Study	No	3	AdHoc_Restudy_L2	ON		3000								
A36O6HV8LCXLJR	Collector	1	393	2016-05-27T12:24:38-07:00	4	2	Stimuli/versionDstim.txt	Procedure/versionDproc.txt	Tetris		PENDANT		PENDANT	OFF	AdHoc_Restudy_L2	380	Study	No	3	AdHoc_Restudy_L2	ON		3000								
A36O6HV8LCXLJR	Collector	1	394	2016-05-27T12:24:42-07:00	4	2	Stimuli/versionDstim.txt	Procedure/versionDproc.txt	Tetris		RING		RING	OFF	AdHoc_Restudy_L2	370	Study	No	3	AdHoc_Restudy_L2	ON		3000								
A36O6HV8LCXLJR	Collector	1	395	2016-05-27T12:24:46-07:00	4	2	Stimuli/versionDstim.txt	Procedure/versionDproc.txt	Tetris		SCARF		SCARF	OFF	AdHoc_Restudy_L2	362	Study	No	3	AdHoc_Restudy_L2	ON		3000								
A36O6HV8LCXLJR	Collector	1	396	2016-05-27T12:24:50-07:00	4	2	Stimuli/versionDstim.txt	Procedure/versionDproc.txt	Tetris		EYE SHADOW		EYE SHADOW	OFF	AdHoc_Restudy_L2	365	Study	No	3	AdHoc_Restudy_L2	ON		3000								
A36O6HV8LCXLJR	Collector	1	397	2016-05-27T12:24:54-07:00	4	2	Stimuli/versionDstim.txt	Procedure/versionDproc.txt	Tetris		PANTYHOSE		PANTYHOSE	OFF	AdHoc_Restudy_L2	372	Study	No	3	AdHoc_Restudy_L2	ON		3000								
A36O6HV8LCXLJR	Collector	1	398	2016-05-27T12:24:59-07:00	5	2	Stimuli/versionDstim.txt	Procedure/versionDproc.txt	Tetris		GOWN		GOWN	OFF	AdHoc_Restudy_L2	375	Study	No	3	AdHoc_Restudy_L2	ON		3000								
A36O6HV8LCXLJR	Collector	1	399	2016-05-27T12:25:02-07:00	3	2	Stimuli/versionDstim.txt	Procedure/versionDproc.txt	Tetris		JEANS		JEANS	OFF	AdHoc_Restudy_L2	367	Study	No	3	AdHoc_Restudy_L2	ON		3000								
A36O6HV8LCXLJR	Collector	1	400	2016-05-27T12:25:07-07:00	5	2	Stimuli/versionDstim.txt	Procedure/versionDproc.txt	Tetris		MAKE UP		MAKE UP	OFF	AdHoc_Restudy_L2	377	Study	No	3	AdHoc_Restudy_L2	ON		3000								
A36O6HV8LCXLJR	Collector	1	401	2016-05-27T12:25:11-07:00	4	2	Stimuli/versionDstim.txt	Procedure/versionDproc.txt	Tetris		CONCEALER		CONCEALER	OFF	AdHoc_Restudy_L2	368	Study	No	3	AdHoc_Restudy_L2	ON		3000								
A36O6HV8LCXLJR	Collector	1	402	2016-05-27T12:25:15-07:00	4	2	Stimuli/versionDstim.txt	Procedure/versionDproc.txt	Tetris		SLIP		SLIP	OFF	AdHoc_Restudy_L2	373	Study	No	3	AdHoc_Restudy_L2	ON		3000								
A36O6HV8LCXLJR	Collector	1	403	2016-05-27T12:25:19-07:00	4	2	Stimuli/versionDstim.txt	Procedure/versionDproc.txt	Tetris		DIAMONDS		DIAMONDS	OFF	AdHoc_Restudy_L2	371	Study	No	3	AdHoc_Restudy_L2	ON		3000								
A36O6HV8LCXLJR	Collector	1	404	2016-05-27T12:25:23-07:00	4	2	Stimuli/versionDstim.txt	Procedure/versionDproc.txt	Tetris		BRACELET		BRACELET	OFF	AdHoc_Restudy_L2	378	Study	No	3	AdHoc_Restudy_L2	ON		3000								
A36O6HV8LCXLJR	Collector	1	405	2016-05-27T12:25:27-07:00	4	2	Stimuli/versionDstim.txt	Procedure/versionDproc.txt	Tetris		BROOCH		BROOCH	OFF	AdHoc_Restudy_L2	381	Study	No	3	AdHoc_Restudy_L2	ON		3000								
A36O6HV8LCXLJR	Collector	1	406	2016-05-27T12:25:33-07:00	6	2	Stimuli/versionDstim.txt	Procedure/versionDproc.txt	Tetris		n/a	n/a	n/a	n/a	n/a	0	Instruct	N/A	User	Click the button below for a new list.	OFF		4290								
A36O6HV8LCXLJR	Collector	1	407	2016-05-27T12:25:37-07:00	4	2	Stimuli/versionDstim.txt	Procedure/versionDproc.txt	Tetris		TELEVISION		TELEVISION	OFF	Cat_Restudy_L3	385	Study	No	3	Cat_Restudy_L3	ON		3000								
A36O6HV8LCXLJR	Collector	1	408	2016-05-27T12:25:42-07:00	5	2	Stimuli/versionDstim.txt	Procedure/versionDproc.txt	Tetris		FOOTSTOOL		FOOTSTOOL	OFF	Cat_Restudy_L3	392	Study	No	3	Cat_Restudy_L3	ON		3000								
A36O6HV8LCXLJR	Collector	1	409	2016-05-27T12:25:46-07:00	4	2	Stimuli/versionDstim.txt	Procedure/versionDproc.txt	Tetris		COT		COT	OFF	Cat_Restudy_L3	395	Study	No	3	Cat_Restudy_L3	ON		3000								
A36O6HV8LCXLJR	Collector	1	410	2016-05-27T12:25:50-07:00	4	2	Stimuli/versionDstim.txt	Procedure/versionDproc.txt	Tetris		ARMOIRE		ARMOIRE	OFF	Cat_Restudy_L3	382	Study	No	3	Cat_Restudy_L3	ON		3000								
A36O6HV8LCXLJR	Collector	1	411	2016-05-27T12:25:55-07:00	5	2	Stimuli/versionDstim.txt	Procedure/versionDproc.txt	Tetris		MIRROR		MIRROR	OFF	Cat_Restudy_L3	398	Study	No	3	Cat_Restudy_L3	ON		3000								
A36O6HV8LCXLJR	Collector	1	412	2016-05-27T12:25:59-07:00	4	2	Stimuli/versionDstim.txt	Procedure/versionDproc.txt	Tetris		COUCH		COUCH	OFF	Cat_Restudy_L3	384	Study	No	3	Cat_Restudy_L3	ON		3000								
A36O6HV8LCXLJR	Collector	1	413	2016-05-27T12:26:04-07:00	5	2	Stimuli/versionDstim.txt	Procedure/versionDproc.txt	Tetris		END TABLE		END TABLE	OFF	Cat_Restudy_L3	393	Study	No	3	Cat_Restudy_L3	ON		3000								
A36O6HV8LCXLJR	Collector	1	414	2016-05-27T12:26:08-07:00	4	2	Stimuli/versionDstim.txt	Procedure/versionDproc.txt	Tetris		RUG		RUG	OFF	Cat_Restudy_L3	386	Study	No	3	Cat_Restudy_L3	ON		3000								
A36O6HV8LCXLJR	Collector	1	415	2016-05-27T12:26:13-07:00	5	2	Stimuli/versionDstim.txt	Procedure/versionDproc.txt	Tetris		CRIB		CRIB	OFF	Cat_Restudy_L3	394	Study	No	3	Cat_Restudy_L3	ON		3000								
A36O6HV8LCXLJR	Collector	1	416	2016-05-27T12:26:18-07:00	5	2	Stimuli/versionDstim.txt	Procedure/versionDproc.txt	Tetris		CHINA CLOSET		CHINA CLOSET	OFF	Cat_Restudy_L3	399	Study	No	3	Cat_Restudy_L3	ON		3000								
A36O6HV8LCXLJR	Collector	1	417	2016-05-27T12:26:23-07:00	5	2	Stimuli/versionDstim.txt	Procedure/versionDproc.txt	Tetris		ROCKING CHAIR		ROCKING CHAIR	OFF	Cat_Restudy_L3	400	Study	No	3	Cat_Restudy_L3	ON		3000								
A36O6HV8LCXLJR	Collector	1	418	2016-05-27T12:26:28-07:00	5	2	Stimuli/versionDstim.txt	Procedure/versionDproc.txt	Tetris		CHEST		CHEST	OFF	Cat_Restudy_L3	390	Study	No	3	Cat_Restudy_L3	ON		3000								
A36O6HV8LCXLJR	Collector	1	419	2016-05-27T12:26:32-07:00	4	2	Stimuli/versionDstim.txt	Procedure/versionDproc.txt	Tetris		PIANO		PIANO	OFF	Cat_Restudy_L3	391	Study	No	3	Cat_Restudy_L3	ON		3000								
A36O6HV8LCXLJR	Collector	1	420	2016-05-27T12:26:37-07:00	5	2	Stimuli/versionDstim.txt	Procedure/versionDproc.txt	Tetris		COFFEE TABLE		COFFEE TABLE	OFF	Cat_Restudy_L3	387	Study	No	3	Cat_Restudy_L3	ON		3000								
A36O6HV8LCXLJR	Collector	1	421	2016-05-27T12:26:41-07:00	4	2	Stimuli/versionDstim.txt	Procedure/versionDproc.txt	Tetris		BOOKCASE		BOOKCASE	OFF	Cat_Restudy_L3	388	Study	No	3	Cat_Restudy_L3	ON		3000								
A36O6HV8LCXLJR	Collector	1	422	2016-05-27T12:26:44-07:00	3	2	Stimuli/versionDstim.txt	Procedure/versionDproc.txt	Tetris		CHAISE		CHAISE	OFF	Cat_Restudy_L3	397	Study	No	3	Cat_Restudy_L3	ON		3000								
A36O6HV8LCXLJR	Collector	1	423	2016-05-27T12:26:49-07:00	5	2	Stimuli/versionDstim.txt	Procedure/versionDproc.txt	Tetris		CRADLE		CRADLE	OFF	Cat_Restudy_L3	383	Study	No	3	Cat_Restudy_L3	ON		3000								
A36O6HV8LCXLJR	Collector	1	424	2016-05-27T12:26:53-07:00	4	2	Stimuli/versionDstim.txt	Procedure/versionDproc.txt	Tetris		OTTOMAN		OTTOMAN	OFF	Cat_Restudy_L3	389	Study	No	3	Cat_Restudy_L3	ON		3000								
A36O6HV8LCXLJR	Collector	1	425	2016-05-27T12:26:58-07:00	5	2	Stimuli/versionDstim.txt	Procedure/versionDproc.txt	Tetris		LOVE SEAT		LOVE SEAT	OFF	Cat_Restudy_L3	396	Study	No	3	Cat_Restudy_L3	ON		3000								
A36O6HV8LCXLJR	Collector	1	426	2016-05-27T12:27:02-07:00	4	2	Stimuli/versionDstim.txt	Procedure/versionDproc.txt	Tetris		DAVENPORT		DAVENPORT	OFF	Cat_Restudy_L3	401	Study	No	3	Cat_Restudy_L3	ON		3000								
A36O6HV8LCXLJR	Collector	1	427	2016-05-27T12:27:09-07:00	7	2	Stimuli/versionDstim.txt	Procedure/versionDproc.txt	Tetris		n/a	n/a	n/a	n/a	n/a	0	Instruct	N/A	User	Restudy Instructions: You will now view this list again, but in a different order. Click the button below to begin.	OFF		5060								
A36O6HV8LCXLJR	Collector	1	428	2016-05-27T12:27:13-07:00	4	2	Stimuli/versionDstim.txt	Procedure/versionDproc.txt	Tetris		CHAISE		CHAISE	OFF	Cat_Restudy_L3	417	Study	No	3	Cat_Restudy_L3	ON		3000								
A36O6HV8LCXLJR	Collector	1	429	2016-05-27T12:27:18-07:00	5	2	Stimuli/versionDstim.txt	Procedure/versionDproc.txt	Tetris		CHINA CLOSET		CHINA CLOSET	OFF	Cat_Restudy_L3	419	Study	No	3	Cat_Restudy_L3	ON		3000								
A36O6HV8LCXLJR	Collector	1	430	2016-05-27T12:27:22-07:00	4	2	Stimuli/versionDstim.txt	Procedure/versionDproc.txt	Tetris		PIANO		PIANO	OFF	Cat_Restudy_L3	411	Study	No	3	Cat_Restudy_L3	ON		3000								
A36O6HV8LCXLJR	Collector	1	431	2016-05-27T12:27:26-07:00	4	2	Stimuli/versionDstim.txt	Procedure/versionDproc.txt	Tetris		ARMOIRE		ARMOIRE	OFF	Cat_Restudy_L3	402	Study	No	3	Cat_Restudy_L3	ON		3000								
A36O6HV8LCXLJR	Collector	1	432	2016-05-27T12:27:30-07:00	4	2	Stimuli/versionDstim.txt	Procedure/versionDproc.txt	Tetris		TELEVISION		TELEVISION	OFF	Cat_Restudy_L3	405	Study	No	3	Cat_Restudy_L3	ON		3000								
A36O6HV8LCXLJR	Collector	1	433	2016-05-27T12:27:34-07:00	4	2	Stimuli/versionDstim.txt	Procedure/versionDproc.txt	Tetris		ROCKING CHAIR		ROCKING CHAIR	OFF	Cat_Restudy_L3	420	Study	No	3	Cat_Restudy_L3	ON		3000								
A36O6HV8LCXLJR	Collector	1	434	2016-05-27T12:27:39-07:00	5	2	Stimuli/versionDstim.txt	Procedure/versionDproc.txt	Tetris		CRADLE		CRADLE	OFF	Cat_Restudy_L3	403	Study	No	3	Cat_Restudy_L3	ON		3000								
A36O6HV8LCXLJR	Collector	1	435	2016-05-27T12:27:43-07:00	4	2	Stimuli/versionDstim.txt	Procedure/versionDproc.txt	Tetris		RUG		RUG	OFF	Cat_Restudy_L3	406	Study	No	3	Cat_Restudy_L3	ON		3000								
A36O6HV8LCXLJR	Collector	1	436	2016-05-27T12:27:47-07:00	4	2	Stimuli/versionDstim.txt	Procedure/versionDproc.txt	Tetris		END TABLE		END TABLE	OFF	Cat_Restudy_L3	413	Study	No	3	Cat_Restudy_L3	ON		3000								
A36O6HV8LCXLJR	Collector	1	437	2016-05-27T12:27:52-07:00	5	2	Stimuli/versionDstim.txt	Procedure/versionDproc.txt	Tetris		LOVE SEAT		LOVE SEAT	OFF	Cat_Restudy_L3	416	Study	No	3	Cat_Restudy_L3	ON		3000								
A36O6HV8LCXLJR	Collector	1	438	2016-05-27T12:27:56-07:00	4	2	Stimuli/versionDstim.txt	Procedure/versionDproc.txt	Tetris		BOOKCASE		BOOKCASE	OFF	Cat_Restudy_L3	408	Study	No	3	Cat_Restudy_L3	ON		3000								
A36O6HV8LCXLJR	Collector	1	439	2016-05-27T12:28:01-07:00	5	2	Stimuli/versionDstim.txt	Procedure/versionDproc.txt	Tetris		COUCH		COUCH	OFF	Cat_Restudy_L3	404	Study	No	3	Cat_Restudy_L3	ON		3000								
A36O6HV8LCXLJR	Collector	1	440	2016-05-27T12:28:05-07:00	4	2	Stimuli/versionDstim.txt	Procedure/versionDproc.txt	Tetris		OTTOMAN		OTTOMAN	OFF	Cat_Restudy_L3	409	Study	No	3	Cat_Restudy_L3	ON		3000								
A36O6HV8LCXLJR	Collector	1	441	2016-05-27T12:28:09-07:00	4	2	Stimuli/versionDstim.txt	Procedure/versionDproc.txt	Tetris		CRIB		CRIB	OFF	Cat_Restudy_L3	414	Study	No	3	Cat_Restudy_L3	ON		3000								
A36O6HV8LCXLJR	Collector	1	442	2016-05-27T12:28:13-07:00	4	2	Stimuli/versionDstim.txt	Procedure/versionDproc.txt	Tetris		COFFEE TABLE		COFFEE TABLE	OFF	Cat_Restudy_L3	407	Study	No	3	Cat_Restudy_L3	ON		3000								
A36O6HV8LCXLJR	Collector	1	443	2016-05-27T12:28:17-07:00	4	2	Stimuli/versionDstim.txt	Procedure/versionDproc.txt	Tetris		FOOTSTOOL		FOOTSTOOL	OFF	Cat_Restudy_L3	412	Study	No	3	Cat_Restudy_L3	ON		3000								
A36O6HV8LCXLJR	Collector	1	444	2016-05-27T12:28:21-07:00	4	2	Stimuli/versionDstim.txt	Procedure/versionDproc.txt	Tetris		DAVENPORT		DAVENPORT	OFF	Cat_Restudy_L3	421	Study	No	3	Cat_Restudy_L3	ON		3000								
A36O6HV8LCXLJR	Collector	1	445	2016-05-27T12:28:25-07:00	4	2	Stimuli/versionDstim.txt	Procedure/versionDproc.txt	Tetris		MIRROR		MIRROR	OFF	Cat_Restudy_L3	418	Study	No	3	Cat_Restudy_L3	ON		3000								
A36O6HV8LCXLJR	Collector	1	446	2016-05-27T12:28:31-07:00	6	2	Stimuli/versionDstim.txt	Procedure/versionDproc.txt	Tetris		COT		COT	OFF	Cat_Restudy_L3	415	Study	No	3	Cat_Restudy_L3	ON		3000								
A36O6HV8LCXLJR	Collector	1	447	2016-05-27T12:28:35-07:00	4	2	Stimuli/versionDstim.txt	Procedure/versionDproc.txt	Tetris		CHEST		CHEST	OFF	Cat_Restudy_L3	410	Study	No	3	Cat_Restudy_L3	ON		3000								
A36O6HV8LCXLJR	Collector	1	448	2016-05-27T12:28:40-07:00	5	2	Stimuli/versionDstim.txt	Procedure/versionDproc.txt	Tetris		n/a	n/a	n/a	n/a	n/a	0	Instruct	N/A	User	Click the button below for a new list.	OFF		4520								
A36O6HV8LCXLJR	Collector	1	449	2016-05-27T12:28:45-07:00	5	2	Stimuli/versionDstim.txt	Procedure/versionDproc.txt	Tetris		LOLLIPOP		LOLLIPOP	OFF	Unrel_Restudy_L4	440	Study	No	3	Unrel_Restudy_L4	ON		3000								
A36O6HV8LCXLJR	Collector	1	450	2016-05-27T12:28:49-07:00	4	2	Stimuli/versionDstim.txt	Procedure/versionDproc.txt	Tetris		NECTAR		NECTAR	OFF	Unrel_Restudy_L4	437	Study	No	3	Unrel_Restudy_L4	ON		3000								
A36O6HV8LCXLJR	Collector	1	451	2016-05-27T12:28:53-07:00	4	2	Stimuli/versionDstim.txt	Procedure/versionDproc.txt	Tetris		GAUZE		GAUZE	OFF	Unrel_Restudy_L4	431	Study	No	3	Unrel_Restudy_L4	ON		3000								
A36O6HV8LCXLJR	Collector	1	452	2016-05-27T12:28:58-07:00	5	2	Stimuli/versionDstim.txt	Procedure/versionDproc.txt	Tetris		DAIRY		DAIRY	OFF	Unrel_Restudy_L4	433	Study	No	3	Unrel_Restudy_L4	ON		3000								
A36O6HV8LCXLJR	Collector	1	453	2016-05-27T12:29:02-07:00	4	2	Stimuli/versionDstim.txt	Procedure/versionDproc.txt	Tetris		KNOB		KNOB	OFF	Unrel_Restudy_L4	423	Study	No	3	Unrel_Restudy_L4	ON		3000								
A36O6HV8LCXLJR	Collector	1	454	2016-05-27T12:29:06-07:00	4	2	Stimuli/versionDstim.txt	Procedure/versionDproc.txt	Tetris		OTTER		OTTER	OFF	Unrel_Restudy_L4	429	Study	No	3	Unrel_Restudy_L4	ON		3000								
A36O6HV8LCXLJR	Collector	1	455	2016-05-27T12:29:10-07:00	4	2	Stimuli/versionDstim.txt	Procedure/versionDproc.txt	Tetris		LAND		LAND	OFF	Unrel_Restudy_L4	427	Study	No	3	Unrel_Restudy_L4	ON		3000								
A36O6HV8LCXLJR	Collector	1	456	2016-05-27T12:29:14-07:00	4	2	Stimuli/versionDstim.txt	Procedure/versionDproc.txt	Tetris		BEVERAGE		BEVERAGE	OFF	Unrel_Restudy_L4	428	Study	No	3	Unrel_Restudy_L4	ON		3000								
A36O6HV8LCXLJR	Collector	1	457	2016-05-27T12:29:18-07:00	4	2	Stimuli/versionDstim.txt	Procedure/versionDproc.txt	Tetris		COSTUME		COSTUME	OFF	Unrel_Restudy_L4	430	Study	No	3	Unrel_Restudy_L4	ON		3000								
A36O6HV8LCXLJR	Collector	1	458	2016-05-27T12:29:22-07:00	4	2	Stimuli/versionDstim.txt	Procedure/versionDproc.txt	Tetris		TULIP		TULIP	OFF	Unrel_Restudy_L4	422	Study	No	3	Unrel_Restudy_L4	ON		3000								
A36O6HV8LCXLJR	Collector	1	459	2016-05-27T12:29:26-07:00	4	2	Stimuli/versionDstim.txt	Procedure/versionDproc.txt	Tetris		FOAM		FOAM	OFF	Unrel_Restudy_L4	425	Study	No	3	Unrel_Restudy_L4	ON		3000								
A36O6HV8LCXLJR	Collector	1	460	2016-05-27T12:29:31-07:00	5	2	Stimuli/versionDstim.txt	Procedure/versionDproc.txt	Tetris		CHEEK		CHEEK	OFF	Unrel_Restudy_L4	435	Study	No	3	Unrel_Restudy_L4	ON		3000								
A36O6HV8LCXLJR	Collector	1	461	2016-05-27T12:29:35-07:00	4	2	Stimuli/versionDstim.txt	Procedure/versionDproc.txt	Tetris		PAIL		PAIL	OFF	Unrel_Restudy_L4	436	Study	No	3	Unrel_Restudy_L4	ON		3000								
A36O6HV8LCXLJR	Collector	1	462	2016-05-27T12:29:40-07:00	5	2	Stimuli/versionDstim.txt	Procedure/versionDproc.txt	Tetris		VOTE		VOTE	OFF	Unrel_Restudy_L4	426	Study	No	3	Unrel_Restudy_L4	ON		3000								
A36O6HV8LCXLJR	Collector	1	463	2016-05-27T12:29:45-07:00	5	2	Stimuli/versionDstim.txt	Procedure/versionDproc.txt	Tetris		STARS		STARS	OFF	Unrel_Restudy_L4	424	Study	No	3	Unrel_Restudy_L4	ON		3000								
A36O6HV8LCXLJR	Collector	1	464	2016-05-27T12:29:50-07:00	5	2	Stimuli/versionDstim.txt	Procedure/versionDproc.txt	Tetris		WHEEL		WHEEL	OFF	Unrel_Restudy_L4	438	Study	No	3	Unrel_Restudy_L4	ON		3000								
A36O6HV8LCXLJR	Collector	1	465	2016-05-27T12:29:55-07:00	5	2	Stimuli/versionDstim.txt	Procedure/versionDproc.txt	Tetris		DANCER		DANCER	OFF	Unrel_Restudy_L4	434	Study	No	3	Unrel_Restudy_L4	ON		3000								
A36O6HV8LCXLJR	Collector	1	466	2016-05-27T12:29:59-07:00	4	2	Stimuli/versionDstim.txt	Procedure/versionDproc.txt	Tetris		SHRUB		SHRUB	OFF	Unrel_Restudy_L4	432	Study	No	3	Unrel_Restudy_L4	ON		3000								
A36O6HV8LCXLJR	Collector	1	467	2016-05-27T12:30:03-07:00	4	2	Stimuli/versionDstim.txt	Procedure/versionDproc.txt	Tetris		CLOAK		CLOAK	OFF	Unrel_Restudy_L4	439	Study	No	3	Unrel_Restudy_L4	ON		3000								
A36O6HV8LCXLJR	Collector	1	468	2016-05-27T12:30:07-07:00	4	2	Stimuli/versionDstim.txt	Procedure/versionDproc.txt	Tetris		MIST		MIST	OFF	Unrel_Restudy_L4	441	Study	No	3	Unrel_Restudy_L4	ON		3000								
A36O6HV8LCXLJR	Collector	1	469	2016-05-27T12:30:12-07:00	5	2	Stimuli/versionDstim.txt	Procedure/versionDproc.txt	Tetris		n/a	n/a	n/a	n/a	n/a	0	Instruct	N/A	User	Restudy Instructions: You will now view this list again, but in a different order. Click the button below to begin.	OFF		3600								
